"Time (s)","Linear Acceleration x (m/s^2)","Linear Acceleration y (m/s^2)","Linear Acceleration z (m/s^2)","Absolute acceleration (m/s^2)"
3.169066666E-2,-3.457607719E-1,6.847727606E-1,-8.554049653E-1,1.148991688E0
4.164866667E-2,1.405053762E-1,5.846144881E-1,1.999274129E-1,6.336298848E-1
5.160766665E-2,-1.551199654E0,-1.693417241E-1,1.919383621E-1,1.572175983E0
6.156666667E-2,-1.592635656E0,-6.166986720E-1,6.029993767E-1,1.811191274E0
7.152566666E-2,-8.040769368E-1,-4.310157708E-1,1.504652309E0,1.759628622E0
8.148466668E-2,1.150328583E-1,-3.882729899E-1,1.085087689E0,1.158189866E0
9.144266666E-2,3.977328712E-1,-7.112009329E-1,6.416149735E-1,1.037144145E0
1.014016667E-1,-8.967845410E-2,-5.501470156E-1,5.021267205E-1,7.502234383E-1
1.113606667E-1,-6.398628554E-1,8.608431682E-2,-6.032268333E-1,8.835822518E-1
1.213196667E-1,-8.821632859E-1,4.129241202E-1,-1.526817935E0,1.811047044E0
1.312786667E-1,-1.044991577E0,1.878291582E-1,-1.372856069E0,1.735517495E0
1.412376667E-1,-4.939283395E-1,-5.650947281E-1,-7.822960585E-1,1.084105336E0
1.511956667E-1,-1.047973073E-1,-1.148097139E0,-7.352990627E-2,1.155212605E0
1.611546667E-1,-5.323831379E-1,-1.150839483E0,3.469597435E-1,1.314627090E0
1.711136667E-1,-4.218906426E-1,-4.150397524E-1,1.542765046E0,1.652384246E0
1.810726667E-1,7.335864133E-1,-7.227158546E-4,1.725163676E0,1.874657103E0
1.910312500E-1,1.323606141E0,5.785966069E-3,1.085494655E0,1.711801782E0
2.009902500E-1,1.279357921E0,1.464211504E-1,3.159086895E-1,1.325893715E0
2.109482500E-1,1.266623855E0,8.639242854E-1,2.683468527E-1,1.556506085E0
2.209072500E-1,9.011161584E-1,1.051814328E0,-1.618146765E-1,1.394456059E0
2.308662500E-1,4.789922118E-1,5.545589957E-1,-4.080964762E-1,8.387561937E-1
2.408252500E-1,-3.871570122E-1,2.109252215E-1,-5.287046546E-1,6.884102069E-1
2.507842500E-1,-1.263440046E0,5.343524802E-1,-4.008149385E-2,1.372377444E0
2.607432500E-1,-1.561171496E0,1.208921703E0,9.010916001E-1,2.170417977E0
2.707012500E-1,-2.294555596E0,2.741429344E0,1.212857537E0,3.775108427E0
2.806602500E-1,-2.387654963E0,3.028725853E0,1.635815881E0,4.189268446E0
2.906192500E-1,-1.712012118E0,1.348554163E0,2.045244938E0,2.988747343E0
3.005782500E-1,-1.720095309E0,-1.602417755E-1,1.713014331E0,2.432863210E0
3.105372500E-1,-1.977203813E0,-6.687454695E-1,1.136961848E0,2.376812501E0
3.204962500E-1,-2.589763387E0,-1.117572846E0,1.482329394E0,3.186399834E0
3.304542500E-1,-3.147538059E0,-2.285286005E0,2.036271216E0,4.390436018E0
3.404132500E-1,-3.866269037E0,-4.869884546E0,2.967492349E0,6.889834730E0
3.503722500E-1,-3.918716222E0,-7.133880839E0,4.433936028E0,9.268677433E0
3.603312500E-1,-4.148281417E0,-6.725261621E0,5.000642322E0,9.351139301E0
3.702902500E-1,-4.737731041E0,-4.682333935E0,4.660041425E0,8.129350071E0
3.802482500E-1,-4.295276910E0,-3.402865794E0,4.173092907E0,6.887931747E0
3.902072500E-1,-3.469578139E0,-3.102583496E0,3.110475775E0,5.598129720E0
4.001662500E-1,-2.811505008E0,-2.807946977E0,1.043819211E0,4.108367702E0
4.101252500E-1,-1.566812890E0,-2.025651211E0,-4.811545122E-1,2.605700505E0
4.200842500E-1,-3.909530246E-1,-1.040244515E0,-1.185578522E0,1.624976723E0
4.300432500E-1,-1.191381884E-1,1.089181325E-1,-2.578078312E0,2.583126952E0
4.400012500E-1,-6.894750184E-1,1.322346066E0,-4.317844824E0,4.568124214E0
4.499602500E-1,-1.630977895E0,1.993024917E0,-5.260730567E0,5.857262442E0
4.599192500E-1,-2.142555470E0,2.024204610E0,-4.891237993E0,5.710705504E0
4.698782500E-1,-2.135211368E0,2.031146716E0,-3.306629688E0,4.429275839E0
4.798372500E-1,-2.509506844E0,1.895928393E0,-1.530390583E0,3.497751336E0
4.897962500E-1,-2.995625643E0,1.313706805E0,-1.806181526E-1,3.276006941E0
4.997542500E-1,-3.281766742E0,1.138980306E0,3.241591108E-1,3.488889252E0
5.097132500E-1,-4.383372231E0,1.913131194E0,-1.075419720E-1,4.783888413E0
5.196722500E-1,-5.222748224E0,1.725649579E0,-1.273389083E0,5.645926428E0
5.296312500E-1,1.887913907E-1,3.138253266E-1,-8.215443242E-1,8.994796281E-1
5.395902500E-1,9.322636330E0,8.533970314E-1,-1.929565963E0,9.558402556E0
5.495492500E-1,1.182421143E1,3.472598226E0,-6.348562939E0,1.386272577E1
5.595072500E-1,7.705936165E0,3.424968562E0,-9.483254081E0,1.269031007E1
5.694662500E-1,3.610986033E0,6.072041094E-1,-7.753309722E0,8.574481244E0
5.794252500E-1,-1.322410385E0,-2.463718468E-1,-2.985333374E0,3.274398214E0
5.893842500E-1,-3.309746253E0,5.598252904E-1,1.020239656E0,3.508377627E0
5.993432500E-1,-5.345062619E-1,8.407126665E-3,2.684935008E0,2.737634677E0
6.093022500E-1,1.060476174E0,-2.673890787E-1,1.366178548E0,1.750014417E0
6.192602500E-1,1.363169571E0,-1.628655966E0,4.028965473E-2,2.124235107E0
6.292192500E-1,1.692992880E0,-1.185215995E0,-3.241601633E0,3.844339084E0
6.391782500E-1,1.777285171E0,2.505020860E0,-5.295878180E0,6.122107300E0
6.491372500E-1,2.263891042E0,8.631636357E-1,-3.559459784E0,4.305810965E0
6.590962500E-1,-2.858058785E0,-3.279419085E0,2.921492304E0,5.240057903E0
6.690552500E-1,-5.768708596E0,-7.299710798E0,3.179783700E0,9.832334462E0
6.790132500E-1,-4.437953065E0,-3.474870454E0,8.755725968E-1,5.704101985E0
6.889722500E-1,-2.642470774E0,-1.048098788E0,3.480474426E0,4.493869723E0
6.989312500E-1,-2.340312982E-1,-1.633307426E0,3.535941113E0,3.901966601E0
7.088902500E-1,3.085914838E-1,-2.000836505E0,2.076031698E0,2.899738442E0
7.188492500E-1,7.915925467E-1,-2.560317979E0,1.328665152E0,2.991186721E0
7.288082500E-1,9.954943120E-1,-3.383106591E0,9.699630296E-1,3.657491956E0
7.387662500E-1,1.799919451E0,-4.002252468E0,3.524865683E-1,4.402497204E0
7.487252500E-1,2.291113340E0,-3.859314358E0,1.400092034E-1,4.490335202E0
7.586842500E-1,1.833242440E0,-3.385012198E0,3.885603440E-1,3.869116768E0
7.686432500E-1,8.026104552E-1,-4.077607291E0,5.909594114E-1,4.197653843E0
7.786022500E-1,-7.098139733E-1,-3.294563958E0,6.793181855E-2,3.370845930E0
7.885612500E-1,-6.061428398E-1,-2.821397912E0,1.062446101E0,3.075140165E0
7.985192500E-1,-5.525174403E-1,-2.660040488E0,2.190680394E0,3.490010245E0
8.084782500E-1,-1.282621252E0,2.836663823E0,3.147111797E0,4.426747292E0
8.184372500E-1,-1.117015241E0,7.759919415E0,1.315090110E0,7.949436104E0
8.283962500E-1,7.860739446E-1,6.389337328E0,-1.349901069E0,6.577520554E0
8.383552500E-1,1.223110630E0,4.786621950E0,-1.399306826E0,5.134764736E0
8.483142500E-1,2.856195277E-1,2.380742385E0,-1.375247434E0,2.764203017E0
8.582722500E-1,-7.540124917E-1,-1.682900001E0,-4.698760518E0,5.047676461E0
8.682312500E-1,-9.380927807E-1,-1.128951162E0,-5.470782434E0,5.664274819E0
8.781902500E-1,-1.108661324E0,1.425404411E0,-1.527159412E0,2.364978549E0
8.881492500E-1,-8.277400339E-1,2.049201164E0,-5.336571001E-1,2.273580629E0
8.981082500E-1,-5.679511660E-1,3.056774654E0,9.592254952E-1,3.253698413E0
9.080672500E-1,1.898269325E-1,5.038324703E0,2.580740841E0,5.664006830E0
9.180262500E-1,8.895407179E-1,2.057917024E0,1.348630177E0,2.616315830E0
9.279842500E-1,-2.412531357E0,-5.509727814E0,-1.075129589E0,6.110099161E0
9.379432500E-1,-7.256401641E0,-2.777115778E0,8.653439163E-1,7.817707907E0
9.479022500E-1,-7.405533707E0,1.669829135E0,3.517577055E0,8.366815832E0
9.578612500E-1,-4.192539577E0,1.926097394E0,6.713167825E-1,4.662392680E0
9.678202500E-1,-4.608013485E0,5.569270595E0,1.737509779E0,7.434346204E0
9.777792500E-1,-7.396847084E0,9.048470913E0,2.502546611E0,1.195202544E1
9.877372500E-1,-5.499478229E0,6.035762630E0,-3.864226019E-1,8.174595632E0
9.976962500E-1,-3.615103642E0,5.158738754E0,9.352621436E-4,6.299330183E0
1.007655250E0,-1.208593455E0,3.209291673E0,1.113851605E0,3.605678380E0
1.017614250E0,6.930549762E-1,1.347259882E0,1.425410843E-1,1.521759623E0
1.027573250E0,1.799473893E0,-4.967841196E-1,-3.115607584E0,3.632067093E0
1.037532250E0,2.371140964E0,-1.791747674E0,-3.816247276E0,4.836983820E0
1.047490250E0,4.582371690E0,-2.745451351E0,-2.601094122E0,5.941491737E0
1.057449250E0,6.656443986E0,-2.942636420E0,-1.629972759E-1,7.279692559E0
1.067408250E0,4.008664233E0,-4.330113451E0,9.979188600E-1,5.984572958E0
1.077367250E0,1.173822695E0,-3.730144102E0,5.515596664E-1,3.949183815E0
1.087326250E0,-9.050517730E-2,-3.637109054E0,-1.139870253E0,3.812618214E0
1.097285250E0,-1.415298961E0,-4.445403003E0,3.538196969E-1,4.678660853E0
1.107244250E0,-7.681493781E-1,-7.121408728E0,7.795879206E-1,7.205017214E0
1.117202250E0,5.432972949E-1,-3.887265803E0,-4.391097279E0,5.889630098E0
1.127161250E0,1.854191260E0,-3.962463335E0,-2.248306166E0,4.918741864E0
1.137120250E0,2.314778629E0,-6.138111123E0,-8.980437389E-1,6.621260516E0
1.147079250E0,2.331052015E0,-6.209487500E0,1.071749167E0,6.718644564E0
1.157038250E0,2.050115376E0,-5.661229171E0,1.678692344E0,6.250639709E0
1.166997250E0,2.119277705E0,-4.458802482E0,1.050944628E0,5.047449076E0
1.176955250E0,3.569301817E0,-4.796217231E0,-4.241416745E-1,5.993622556E0
1.186917750E0,3.981541923E0,-1.566043396E0,-1.044114787E0,4.404014497E0
1.196876750E0,3.140122182E-1,3.993183437E0,-1.637661263E0,4.327360864E0
1.206835750E0,-3.957236509E0,6.591746299E0,-2.367222891E0,8.044537543E0
1.216794750E0,-6.376469945E0,6.067959738E0,-2.216810724E0,9.077100535E0
1.226753750E0,-5.062839155E0,4.842999634E0,-1.131394860E0,7.096974009E0
1.236712750E0,-2.990961611E0,3.860582619E0,-5.293225591E-1,4.912243061E0
1.246670750E0,-1.868455689E0,2.043198413E0,-4.836670607E-2,2.769138088E0
1.256629750E0,-5.185879848E-1,3.331579757E-1,3.058985487E-1,6.881145666E-1
1.266588750E0,1.125636595E0,-1.495912476E0,-1.913501322E-4,1.872114290E0
1.276547750E0,2.179318523E0,-2.931989810E0,-5.439068305E-1,3.693484549E0
1.286506750E0,2.015741496E0,-3.009041494E0,-7.040190902E-1,3.689605314E0
1.296465750E0,1.026314986E0,-1.924428599E0,-4.671668029E-1,2.230469167E0
1.306423750E0,-4.750317099E-1,7.729334968E-1,2.069670220E-1,9.305464331E-1
1.316382750E0,-2.564923538E0,1.609046159E1,2.006851389E0,1.641673656E1
1.326341750E0,-3.493488573E0,1.674877270E1,1.281068816E0,1.715712641E1
1.336300750E0,-2.818350928E0,1.178022750E1,-1.297445405E0,1.218196316E1
1.346259750E0,-1.614328826E0,1.242584080E1,-1.696585701E0,1.264460281E1
1.356218750E0,-3.309738360E0,1.696127338E1,9.956378612E-1,1.730983702E1
1.366177750E0,-4.216435978E0,9.957476134E0,1.959813755E0,1.098956474E1
1.376135750E0,-4.399520486E0,5.921362440E0,-4.215880492E-1,7.388914002E0
1.386094750E0,-3.645610905E0,2.894800934E0,-6.166342065E-2,4.655550848E0
1.396053750E0,-3.942100992E0,-1.143017692E1,-7.032245998E-1,1.211130172E1
1.406012750E0,-2.061809954E0,-1.605235879E1,6.202141643E-2,1.618434829E1
1.415971750E0,7.940178256E-1,-1.221110180E1,1.250201365E0,1.230058840E1
1.425930750E0,3.144601295E0,-9.076609468E0,1.431170496E0,9.711931102E0
1.435888750E0,3.610172393E0,-8.659909399E0,1.678879602E0,9.531317444E0
1.445847750E0,3.461207558E0,-9.795896516E0,2.640894949E0,1.071978882E1
1.455806750E0,4.066241765E0,-1.462919211E1,1.313719668E0,1.524051978E1
1.465765750E0,6.932813804E0,-5.982618456E0,1.156203719E0,9.229974965E0
1.475724750E0,8.609171355E0,-5.174277145E0,2.082478838E0,1.025805505E1
1.485683750E0,5.631630566E0,-4.081866987E0,1.510712218E0,7.117524312E0
1.495642750E0,3.965534878E-1,-3.826372315E0,-2.146243894E-1,3.852848737E0
1.505600750E0,-2.622917685E0,-3.536536360E0,-1.491209414E0,4.648708651E0
1.515559750E0,-3.689746566E0,-2.639078220E0,-2.111504563E0,5.003740110E0
1.525518750E0,-2.660650937E0,2.862469339E-1,-2.764661794E0,3.847642856E0
1.535477750E0,-9.999482824E-1,2.951095587E0,-2.694030937E0,4.119061109E0
1.545436750E0,1.540897737E-1,3.006306167E0,-7.881671016E-1,3.111724250E0
1.555395750E0,1.153499235E0,2.071553900E0,1.437390618E0,2.772722099E0
1.565354750E0,1.654209468E0,2.010579135E0,2.521322898E0,3.624349125E0
1.575312750E0,1.030610058E0,2.862875136E0,2.659732339E0,4.041334836E0
1.585271750E0,-9.737923712E-2,3.869863905E0,2.049419704E0,4.380119916E0
1.595230750E0,-6.631496841E-1,3.909753610E0,1.341904271E0,4.186483950E0
1.605189750E0,-7.324514687E-1,2.671537868E0,8.581750837E-1,2.900011070E0
1.615148750E0,-9.433155137E-1,-2.876485115E-1,7.337565672E-1,1.229221105E0
1.625107750E0,-2.034465011E0,-3.055778874E0,7.574144018E-1,3.748400857E0
1.635065750E0,-2.595047224E0,-3.670864445E0,3.991799109E-1,4.513187396E0
1.645024750E0,-1.110880927E0,-3.075643035E0,-8.483785124E-1,3.378369815E0
1.654983750E0,5.260845172E-1,-1.908269818E0,-1.825317124E0,2.692590058E0
1.664942750E0,6.615773678E-1,-5.207775843E-1,-1.726736577E0,1.921070824E0
1.674901750E0,1.738751435E-1,6.294580275E-1,-6.502479489E-1,9.215597479E-1
1.684860750E0,-2.136388412E-1,1.181984823E0,5.649509597E-1,1.327365535E0
1.694819750E0,-4.247597252E-1,1.277769817E0,1.206699250E0,1.808103871E0
1.704777750E0,-6.637379140E-1,9.862685752E-1,1.289929833E0,1.754192890E0
1.714736750E0,-8.015255043E-1,5.957657862E-1,1.048165007E0,1.447767208E0
1.724695750E0,-8.218184124E-1,2.659383845E-1,6.635994811E-1,1.089253413E0
1.734654750E0,-8.573950651E-1,1.037547487E-1,2.298234956E-1,8.937058715E-1
1.744613750E0,-9.280718225E-1,1.057802242E-1,-1.479402570E-1,9.457235766E-1
1.754572750E0,-9.985513826E-1,2.226017457E-1,-3.226132531E-1,1.072723502E0
1.764531750E0,-1.094710452E0,4.057616830E-1,-2.434499931E-1,1.192602791E0
1.774489750E0,-1.183422507E0,6.530468649E-1,-3.729704976E-2,1.352164971E0
1.784448750E0,-1.242124606E0,8.841680038E-1,2.162464070E-1,1.539931526E0
1.794407750E0,-1.356968745E0,9.945008701E-1,4.278958793E-1,1.735940967E0
1.804366750E0,-1.487708248E0,9.894441980E-1,5.146707523E-1,1.859344410E0
1.814325750E0,-1.582926793E0,7.940097857E-1,4.693315883E-1,1.832042824E0
1.824284750E0,-1.661704867E0,4.191377735E-1,4.076384930E-1,1.761564271E0
1.834243750E0,-1.754781869E0,1.007293993E-1,3.589490207E-1,1.793948221E0
1.844202750E0,-1.803258065E0,3.416995883E-2,2.496970122E-1,1.820784400E0
1.854160750E0,-1.825370626E0,1.494150710E-1,2.282899171E-3,1.831476999E0
1.864119750E0,-1.818673518E0,3.403225690E-1,-3.825238247E-1,1.889369549E0
1.874078750E0,-1.822791419E0,4.292265594E-1,-8.526877642E-1,2.057639526E0
1.884037750E0,-1.713726229E0,3.161858475E-1,-1.176597784E0,2.102668168E0
1.893996750E0,-1.759477622E0,-8.012264192E-2,-1.266539655E0,2.169401723E0
1.903955750E0,-1.791410144E0,-4.789343244E-1,-1.331635683E0,2.282932759E0
1.913913750E0,-1.806316597E0,-6.560002935E-1,-1.367558491E0,2.358671715E0
1.923872750E0,-1.724865760E0,-5.523279905E-1,-1.227623072E0,2.187986862E0
1.933831750E0,-1.568869648E0,-4.341060609E-1,-1.109624653E0,1.970042363E0
1.943790750E0,-1.530458411E0,-3.162092364E-1,-1.005963313E0,1.858562191E0
1.953749750E0,-1.717327968E0,-6.704885244E-2,-7.787136157E-1,1.886824261E0
1.963708750E0,-1.953785861E0,1.645885956E-1,-4.228554332E-1,2.005785460E0
1.973667750E0,-1.804419468E0,2.302539968E-1,5.584690288E-2,1.819908073E0
1.983626750E0,-1.421318523E0,2.860697633E-1,2.808556549E-1,1.476774239E0
1.993584750E0,-9.964224114E-1,3.518263811E-1,4.589060028E-1,1.152056485E0
2.003543750E0,-6.493308131E-1,5.082592803E-1,7.369959247E-1,1.105948007E0
2.013502750E0,-3.162699012E-1,6.747681016E-1,8.180288319E-1,1.106575714E0
2.023461750E0,-1.395704064E-1,6.527720457E-1,6.470492296E-1,9.296579734E-1
2.033420750E0,-4.679731339E-2,4.303042012E-1,3.719367099E-1,5.706913442E-1
2.043379750E0,1.656070344E-1,-8.839820623E-3,5.407651216E-3,1.659309343E-1
2.053338750E0,6.082944690E-1,-4.147377437E-1,-2.963848364E-1,7.936457197E-1
2.063296750E0,1.075371079E0,-6.819052130E-1,-3.507626264E-1,1.320777080E0
2.073255750E0,1.366101511E0,-8.451723379E-1,-1.262517647E-1,1.611362507E0
2.083214750E0,1.409505832E0,-8.450606561E-1,2.317402129E-1,1.659680008E0
2.093173750E0,1.458563532E0,-6.744102520E-1,6.167279081E-1,1.721217615E0
2.103132750E0,1.495282585E0,-3.994051749E-1,7.942702791E-1,1.739614836E0
2.113091750E0,1.400062140E0,-1.668175542E-1,9.484427910E-1,1.699278029E0
2.123050750E0,1.191109842E0,-2.521845639E-2,1.032239458E0,1.576355583E0
2.133009750E0,9.725287879E-1,-2.451679051E-2,9.988672053E-1,1.394327440E0
2.142967750E0,8.903157663E-1,-1.292819381E-1,8.911905098E-1,1.266331911E0
2.152926750E0,8.942601518E-1,-3.161291295E-1,6.745089237E-1,1.163873332E0
2.162885750E0,9.299930714E-1,-5.628792912E-1,4.463600707E-1,1.175141490E0
2.172844750E0,9.875084773E-1,-7.695485437E-1,2.694769733E-1,1.280623205E0
2.182803750E0,9.329348056E-1,-7.609689242E-1,-3.574987650E-3,1.203932654E0
2.192759000E0,8.763641636E-1,-5.930427378E-1,-6.952339411E-2,1.060446764E0
2.202718000E0,8.436017758E-1,-2.982220316E-1,5.902296424E-2,8.967073360E-1
2.212676000E0,8.209099013E-1,7.283642650E-2,2.035100019E-1,8.488901766E-1
2.222635000E0,7.228177424E-1,4.270005244E-1,3.331837765E-1,9.032199984E-1
2.232594000E0,4.576551372E-1,5.933579028E-1,4.745588529E-1,8.869768488E-1
2.242553000E0,1.360218774E-1,5.009233636E-1,5.502627540E-1,7.564491164E-1
2.252512000E0,-1.326015486E-1,2.057097244E-1,5.074188893E-1,5.633592021E-1
2.262471000E0,-3.614476821E-1,-5.091170669E-2,2.091234020E-1,4.206768665E-1
2.272430000E0,-5.177338162E-1,-1.715239781E-1,-2.180508578E-1,5.873797376E-1
2.282388000E0,-4.953667545E-1,-1.622233969E-1,-5.253362198E-1,7.400559410E-1
2.292347000E0,-2.507557967E-1,-1.162724680E-1,-6.934107792E-1,7.464691991E-1
2.302306000E0,1.962764114E-1,1.946479619E-2,-7.411065173E-1,7.669042821E-1
2.312265000E0,6.808649933E-1,1.612036425E-1,-5.476432014E-1,8.885250866E-1
2.322224000E0,1.130277311E0,2.424863720E-1,-1.494220877E-1,1.165612886E0
2.332183000E0,1.331077274E0,1.095429075E-1,3.574625853E-1,1.382586655E0
2.342142000E0,1.308121544E0,-2.681632501E-1,8.795709229E-1,1.598980460E0
2.352101000E0,1.149101544E0,-6.206433499E-1,1.181644077E0,1.761225497E0
2.362059000E0,8.923989831E-1,-7.519039857E-1,1.099586591E0,1.603379625E0
2.372018000E0,9.049820450E-1,-6.910344708E-1,6.102143291E-1,1.291852418E0
2.381977000E0,1.119108105E0,-4.918496543E-1,9.779139273E-2,1.226328745E0
2.391936000E0,1.272461422E0,-3.242357093E-1,2.598283365E-2,1.313378077E0
2.401895000E0,1.303506629E0,-1.575386077E-1,3.197971610E-1,1.351376398E0
2.411854000E0,1.170879499E0,-3.250876486E-2,6.653231672E-1,1.347097078E0
2.421813000E0,8.324736473E-1,-2.059096992E-2,8.014522679E-1,1.155751746E0
2.431772000E0,3.470028667E-1,-8.777898610E-2,7.593556774E-1,8.394862623E-1
2.441730000E0,-1.157348165E-1,-2.222538364E-1,8.866578944E-1,9.213867468E-1
2.451689000E0,-4.520478036E-1,-1.816724056E-1,7.433942404E-1,8.888121716E-1
2.461648000E0,-5.094563515E-1,6.810719848E-2,2.059703641E-1,5.537220923E-1
2.471607000E0,-3.077453917E-1,2.994324052E-1,-3.475023651E-1,5.523811050E-1
2.481566000E0,-1.229736695E-1,3.772424734E-1,-8.080898809E-1,9.002464456E-1
2.491525000E0,-2.444238469E-2,3.145421952E-1,-9.335347299E-1,9.854041378E-1
2.501484000E0,9.667055458E-3,1.618860126E-1,-5.987677467E-1,6.203413153E-1
2.511442000E0,-1.921761976E-1,5.846280098E-2,-1.888484010E-1,2.757051117E-1
2.521401000E0,-4.600025019E-1,3.287304640E-3,2.930614252E-1,5.454338705E-1
2.531360000E0,-7.429081906E-1,-6.044851542E-3,5.573929949E-1,9.287820362E-1
2.541319000E0,-1.023111589E0,6.018422127E-2,4.559916043E-1,1.121743200E0
2.551278000E0,-1.114740966E0,1.041038275E-1,4.864298701E-2,1.120647656E0
2.561237000E0,-9.900156172E-1,1.420937723E-1,-4.047454369E-1,1.078953396E0
2.571196000E0,-6.449123646E-1,2.037538308E-1,-6.253854418E-1,9.211593415E-1
2.581155000E0,-2.045013973E-1,1.993836218E-1,-6.425822492E-1,7.031974098E-1
2.591114000E0,1.815303183E-1,1.386813372E-1,-3.950718033E-1,4.563633416E-1
2.601072000E0,3.945309359E-1,6.428779721E-2,-5.207530260E-2,4.031121648E-1
2.611031000E0,3.912497708E-1,2.144115508E-2,2.131789577E-1,4.460732836E-1
2.620990000E0,3.644649915E-1,-1.765332878E-2,3.880915435E-1,5.326926095E-1
2.630949000E0,3.475855418E-1,-1.550155342E-2,4.297924237E-1,5.529715494E-1
2.640908000E0,2.983224575E-1,1.061269641E-2,3.541633670E-1,4.631852853E-1
2.650867000E0,2.381266880E-1,-1.578572810E-2,1.462996745E-1,2.799233886E-1
2.660826000E0,2.312646881E-1,-1.445004863E-1,-1.699947850E-1,3.213440110E-1
2.670784000E0,2.412298054E-1,-2.454222590E-1,-4.499173705E-1,5.664358256E-1
2.680743000E0,2.604298688E-1,-2.540276062E-1,-6.858069138E-1,7.763278073E-1
2.690702000E0,3.191923396E-1,-1.698148370E-1,-8.315280063E-1,9.067301991E-1
2.700661000E0,2.307556880E-1,2.308480740E-2,-7.978269942E-1,8.308483668E-1
2.710620000E0,1.064108464E-1,1.981071746E-1,-6.763601522E-1,7.127641801E-1
2.720579000E0,2.542310894E-2,2.598450011E-1,-5.625897078E-1,6.202200726E-1
2.730538000E0,4.897043109E-4,2.216299385E-1,-5.049374771E-1,5.514362386E-1
2.740497000E0,1.138452888E-3,1.265319926E-1,-5.182198660E-1,5.334449088E-1
2.750456000E0,-7.515718639E-3,1.686570883E-2,-5.325477371E-1,5.328677419E-1
2.760414000E0,1.556938112E-2,-5.283017814E-2,-4.875177446E-1,4.906189811E-1
2.770373000E0,7.320231602E-2,-6.137179077E-2,-4.217703362E-1,4.324526474E-1
2.780332000E0,9.984354615E-2,-6.492748260E-3,-3.802703078E-1,3.932129150E-1
2.790291000E0,6.099289119E-2,6.719971061E-2,-3.754124410E-1,3.862258857E-1
2.800250000E0,4.113209233E-2,1.095271200E-1,-2.660785715E-1,2.906644892E-1
2.810209000E0,7.185833350E-2,1.139704192E-1,-1.071149974E-1,1.721234998E-1
2.820168000E0,9.937401474E-2,6.696465254E-2,-9.337871835E-2,1.519178875E-1
2.830127000E0,1.273406625E-1,1.535361886E-2,-1.674326813E-1,2.109148660E-1
2.840085000E0,9.727164835E-2,-1.218969047E-2,-1.693046674E-1,1.956385252E-1
2.850044000E0,5.565657601E-2,1.870641232E-2,-1.114711730E-1,1.259897088E-1
2.860003000E0,1.961696997E-2,6.895153642E-2,-4.072351813E-2,8.244722442E-2
2.869962000E0,-4.078915313E-2,1.095692199E-1,8.970944434E-3,1.172588880E-1
2.879921000E0,-1.078422448E-1,1.060410100E-1,6.575427890E-2,1.649189824E-1
2.889880000E0,-1.537114589E-1,8.461798131E-2,4.856097981E-2,1.820592874E-1
2.899839000E0,-1.620586516E-1,7.014846146E-2,-3.992756590E-2,1.810470207E-1
2.909798000E0,-1.551731166E-1,7.919001102E-2,-1.103110854E-1,2.061996352E-1
2.919757000E0,-1.419187944E-1,9.394136667E-2,-1.787188308E-1,2.467921090E-1
2.929715000E0,-1.233309343E-1,8.543015957E-2,-2.519414659E-1,2.932291489E-1
2.939674000E0,-9.903516859E-2,7.673827350E-2,-2.688048358E-1,2.965683176E-1
2.949633000E0,-8.801813722E-2,4.810738206E-2,-2.494774492E-1,2.688875422E-1
2.959592000E0,-1.075378972E-1,3.926756144E-2,-2.044962810E-1,2.343609815E-1
2.969551000E0,-2.013680206E-1,4.104862332E-2,-1.640668778E-1,2.629676969E-1
2.979510000E0,-3.288073549E-1,1.012006849E-1,-1.272843830E-1,3.668203503E-1
2.989469000E0,-3.790584724E-1,1.598120052E-1,-1.565684085E-1,4.401577774E-1
2.999428000E0,-3.305385692E-1,1.627332741E-1,-2.263610668E-1,4.324085994E-1
3.009386000E0,-2.430513592E-1,1.514165729E-1,-3.401337039E-1,4.446255484E-1
3.019345000E0,-1.339440693E-1,7.185994148E-2,-3.831389518E-1,4.121896666E-1
3.029304000E0,-3.343613327E-2,2.304270744E-2,-3.178954272E-1,3.204784611E-1
3.039263000E0,-2.178833351E-2,3.637903690E-2,-1.846655953E-1,1.894717601E-1
3.049222000E0,-3.962087944E-2,8.659200132E-2,-4.408318207E-2,1.049348165E-1
3.059181000E0,-5.822028771E-2,8.631308913E-2,7.659852505E-4,1.041159834E-1
3.069140000E0,-6.885111049E-2,8.850404084E-2,-2.072399408E-3,1.121505038E-1
3.079099000E0,-5.041147739E-2,9.077042162E-2,-5.706166193E-2,1.184762413E-1
3.089058000E0,4.894645751E-2,6.806451380E-2,-1.533479083E-1,1.747687464E-1
3.099016000E0,1.694188343E-1,3.350571513E-2,-2.481112473E-1,3.022988015E-1
3.108975000E0,2.341549668E-1,-2.399931192E-2,-3.293270262E-1,4.047972401E-1
3.118934000E0,2.349282610E-1,-8.448700368E-2,-3.398461671E-1,4.216927305E-1
3.128893000E0,1.945948984E-1,-8.002382398E-2,-3.155954249E-1,3.793039139E-1
3.138852000E0,1.561570568E-1,-8.506529331E-3,-2.661383593E-1,3.086859468E-1
3.148811000E0,1.558370680E-1,6.326394975E-2,-2.499965358E-1,3.013067988E-1
3.158770000E0,1.543580148E-1,1.098738599E-1,-2.753534250E-1,3.342426820E-1
3.168729000E0,1.486960097E-1,8.838475764E-2,-3.349928319E-1,3.770179918E-1
3.178688000E0,1.357279086E-1,2.395078003E-2,-4.325125484E-1,4.539414165E-1
3.188646792E0,1.455043070E-1,-3.006696761E-2,-5.321993892E-1,5.525501930E-1
3.198605792E0,1.820615378E-1,-2.990441501E-2,-6.456413662E-1,6.714860024E-1
3.208564792E0,2.014880347E-1,1.855496943E-2,-7.555092327E-1,7.821354843E-1
3.218523792E0,1.594325209E-1,7.669324994E-2,-7.932660198E-1,8.127555361E-1
3.228482792E0,5.643615603E-2,1.563960618E-1,-7.464986734E-1,7.647908454E-1
3.238441792E0,3.195708007E-2,2.563916355E-1,-6.946669073E-1,7.411612766E-1
3.248400792E0,1.447390527E-1,3.052129626E-1,-8.178687644E-1,8.848805918E-1
3.258359792E0,3.704254970E-1,3.301051444E-1,-1.046254137E0,1.157943079E0
3.268318792E0,6.572096439E-1,3.203467262E-1,-1.338235874E0,1.524933374E0
3.278276792E0,8.882019979E-1,2.999241561E-1,-1.643124755E0,1.891749521E0
3.288235792E0,1.069745472E0,3.302624345E-1,-1.937527531E0,2.237731348E0
3.298194792E0,1.262350125E0,4.554320258E-1,-2.201995049E0,2.578706723E0
3.308153792E0,1.421571269E0,7.234356469E-1,-2.409128716E0,2.889312233E0
3.318112792E0,1.444793778E0,1.077893275E0,-2.519462021E0,3.097897973E0
3.328071792E0,1.501991534E0,1.410394608E0,-2.576997746E0,3.299410387E0
3.338030792E0,1.639514538E0,1.695233533E0,-2.585823534E0,3.499758277E0
3.347989792E0,1.832682716E0,2.005035975E0,-2.516066543E0,3.702632313E0
3.357948792E0,1.964299447E0,2.471342068E0,-2.433767860E0,3.986129693E0
3.367906792E0,2.164567021E0,3.039838194E0,-2.584158539E0,4.539145513E0
3.377865792E0,2.294661430E0,3.783874167E0,-2.646083769E0,5.156058000E0
3.387824792E0,2.143393669E0,4.534192387E0,-2.698963648E0,5.695387766E0
3.397783792E0,1.836175550E0,5.026391705E0,-2.012945504E0,5.717351120E0
3.407742792E0,1.000306863E0,5.091968814E0,-3.663494030E-1,5.202208387E0
3.417701792E0,-2.345601057E-1,4.837153587E0,8.898102745E-1,4.923904507E0
3.427660792E0,-7.433605459E-1,4.325297685E0,8.041994360E-1,4.461784586E0
3.437619792E0,-2.906024518E-1,2.823160263E0,1.045543554E-1,2.840002688E0
3.447578792E0,5.811732555E-1,6.722467822E-1,-4.275180030E-1,9.861286589E-1
3.457537792E0,1.152182296E0,-1.705747411E0,-8.213042960E-1,2.216221790E0
3.467495792E0,8.428724818E-1,-3.877887454E0,1.706574208E-1,3.972098826E0
3.477454792E0,-4.796249536E-1,-5.036712626E0,3.915608427E-1,5.074626495E0
3.487413792E0,-2.405545543E0,-5.395288448E0,9.962047487E-2,5.908105537E0
3.497372792E0,-4.214682983E0,-6.422766445E0,-9.141303062E-2,7.682697299E0
3.507331792E0,-5.195936986E0,-8.414742079E0,1.018867972E0,9.942018777E0
3.517290792E0,-5.001632255E0,-1.143206557E1,3.762152345E0,1.303312083E1
3.527249792E0,-5.134449420E0,-1.555796034E1,4.223968069E0,1.691906046E1
3.537208792E0,-5.412484524E0,-1.838920321E1,3.122006485E0,1.942175862E1
3.547167792E0,-5.533941718E0,-1.699439903E1,3.710481962E0,1.825381565E1
3.557125792E0,-6.009530851E0,-1.352172830E1,4.848754171E0,1.557119180E1
3.567084792E0,-6.307289783E0,-1.132401370E1,4.524096000E0,1.372889782E1
3.577043792E0,-6.161181897E0,-1.093591646E1,3.602192698E0,1.305872212E1
3.587002792E0,-6.068734494E0,-1.113647478E1,2.787575862E0,1.298542214E1
3.596961792E0,-6.362189291E0,-1.085673112E1,1.595877206E0,1.268435601E1
3.606920792E0,-6.691682231E0,-9.134070057E0,-3.713207057E-1,1.132906554E1
3.616879792E0,-5.508636138E0,-5.741931857E0,-2.470935102E0,8.331888971E0
3.626838792E0,-2.990470737E0,-2.526605272E0,-3.471756227E0,5.232565406E0
3.636797792E0,-6.170679237E-1,-3.955799264E-1,-3.513651527E0,3.589290091E0
3.646756792E0,1.233025607E0,2.145983108E0,-3.725532403E0,4.472715879E0
3.656714792E0,2.699210401E0,5.376641092E0,-3.543429058E0,6.982112553E0
3.666673792E0,3.702062556E0,8.409038705E0,-2.540552051E0,9.532659851E0
3.676632792E0,4.417023834E0,1.076537773E1,-1.348711746E0,1.171419996E1
3.686591792E0,4.758086953E0,1.176339103E1,-9.149337137E-1,1.272217999E1
3.696550792E0,4.855220899E0,1.166722772E1,-1.113757757E0,1.268612742E1
3.706509792E0,5.142925544E0,1.112288469E1,-1.507333843E0,1.234667171E1
3.716468792E0,5.874662483E0,1.079688019E1,-1.794446164E0,1.242192893E1
3.726427792E0,6.666449157E0,1.004776650E1,-2.191670913E0,1.225571611E1
3.736386792E0,6.766978582E0,8.517572967E0,-2.953628601E0,1.127230989E1
3.746345792E0,6.111884022E0,5.948550823E0,-4.437870619E0,9.614316347E0
3.756304792E0,5.071652663E0,4.348343316E0,-5.994215823E0,8.975543084E0
3.766262792E0,4.302092717E0,4.477941003E0,-4.820760334E0,7.861277731E0
3.776221792E0,3.816744582E0,5.613969051E0,-2.227697947E0,7.144706141E0
3.786180792E0,3.486283634E0,7.399917457E0,-1.441560853E-1,8.181303864E0
3.796139792E0,2.974281551E0,9.455351753E0,1.930163548E0,1.009829485E1
3.806098792E0,2.045042771E0,1.110736735E1,3.860901293E0,1.193576005E1
3.816057792E0,7.885622272E-1,1.176009086E1,5.147720261E0,1.286159365E1
3.826016792E0,-2.875480856E-1,1.208146786E1,5.660413485E0,1.334484284E1
3.835975792E0,-1.086330222E0,1.174319007E1,5.518949457E0,1.302080756E1
3.845934792E0,-1.193585407E0,1.124991662E1,4.849233935E0,1.230854743E1
3.855893792E0,-9.134138761E-1,1.080298118E1,3.621871794E0,1.143051541E1
3.865852792E0,-6.312493220E-1,1.030535740E1,2.482502064E0,1.061893042E1
3.875810792E0,-2.458922289E-1,9.962869606E0,1.843730006E0,1.013501722E1
3.885769792E0,2.975403924E-1,9.691809061E0,1.487984236E0,9.809882275E0
3.895728792E0,8.700042933E-1,9.560796347E0,1.221124404E0,9.677648426E0
3.905687792E0,1.214774693E0,9.145475636E0,8.052994435E-1,9.260880593E0
3.915646792E0,1.214515077E0,7.943731316E0,1.599296073E-1,8.037629724E0
3.925605792E0,7.262557590E-1,6.151666138E0,-8.607898124E-1,6.253911001E0
3.935564792E0,-6.222321846E-1,3.370306451E0,-4.018912940E0,5.281836772E0
3.945523792E0,-3.080716371E0,-2.110288780E0,-1.270321400E1,1.324068646E1
3.955482792E0,-5.721594071E0,-9.900511390E0,-1.151925340E1,1.623114178E1
3.965441792E0,-2.172755316E0,-2.341343495E1,-4.288234816E0,2.390185682E1
3.975399792E0,-2.538410216E0,-3.635354304E1,-7.669183491E0,3.724030067E1
3.985358792E0,-6.606469588E0,-3.236538178E1,-3.054755611E0,3.317370811E1
3.995317792E0,-4.469317822E-1,-1.420766049E1,5.316877286E0,1.517651306E1
4.005276792E0,1.993095961E0,-6.358034844E0,6.190402772E0,9.094950526E0
4.015235792E0,3.127971522E0,-9.719956972E0,-3.767168671E0,1.088362666E1
4.025194792E0,-1.174251150E0,-1.745468951E1,-6.423884432E0,1.863629101E1
4.035153792E0,-4.298605145E0,-2.090370240E1,-6.220995989E-1,2.135017068E1
4.045112792E0,-4.508881545E0,-1.941884993E1,1.719857912E0,2.000948917E1
4.055071792E0,-6.599970993E0,-1.774369749E1,6.899888425E-1,1.894398328E1
4.065030792E0,-7.390268381E0,-1.796575720E1,-8.963031690E-1,1.944705268E1
4.074988792E0,-5.063796929E0,-1.852471360E1,-2.960334188E0,1.943117680E1
4.084947792E0,-2.884437329E0,-1.825016577E1,-3.075927794E0,1.873098666E1
4.094906792E0,-2.607428411E0,-1.593218214E1,-2.675082450E0,1.636426524E1
4.104865792E0,-2.214164420E0,-1.155016178E1,-3.114611803E0,1.216591830E1
4.114824792E0,-2.552943178E0,-5.510728272E0,-3.752247162E0,7.138977779E0
4.124783792E0,-2.833417156E0,-1.285689286E0,-3.851063937E0,4.950953763E0
4.134742792E0,-2.165818618E0,1.430311394E0,-2.561240669E0,3.646438638E0
4.144701792E0,-9.323888218E-1,3.912845618E0,-1.593583782E0,4.326571277E0
4.154660792E0,9.569857192E-1,6.142649732E0,-1.154963086E0,6.323124791E0
4.164619792E0,3.064396208E0,8.002863623E0,-2.920439001E-1,8.574476073E0
4.174578792E0,4.183044868E0,9.587200618E0,8.082454169E-1,1.049121255E1
4.184536792E0,4.857247836E0,1.129895137E1,1.328154105E0,1.237025270E1
4.194495292E0,5.027198621E0,1.267095725E1,1.262087585E0,1.369009674E1
4.204454292E0,4.823449468E0,1.280809200E1,6.070111879E-1,1.369968423E1
4.214413292E0,5.047453376E0,1.253155261E1,-2.605753183E-2,1.350989546E1
4.224372292E0,5.025231618E0,1.268301772E1,-1.355524191E-1,1.364295663E1
4.234331292E0,4.870735024E0,1.173096003E1,1.247795820E-3,1.270194806E1
4.244290292E0,3.818814788E0,8.911433228E0,5.398507632E-2,9.695354710E0
4.254249292E0,2.531636801E0,6.968209339E0,-5.778792266E-1,7.436334492E0
4.264208292E0,1.822970636E0,6.064963624E0,-1.453392109E0,6.497642213E0
4.274167292E0,1.819105335E0,5.895780872E0,-1.941522349E0,6.468298488E0
4.284126292E0,2.250585411E0,6.618723013E0,-1.822136239E0,7.224459114E0
4.294085292E0,2.868440224E0,7.873857089E0,-1.094834998E0,8.451286201E0
4.304043292E0,3.316646260E0,9.000963455E0,-4.525557804E-1,9.603243841E0
4.314002292E0,3.189544164E0,9.851119959E0,-2.869543739E-1,1.035857612E1
4.323961292E0,2.880180556E0,1.066248194E1,1.946749321E-1,1.104635051E1
4.333920292E0,2.586632496E0,1.081746473E1,1.062924403E0,1.117309354E1
4.343879292E0,2.697834843E0,1.040767783E1,1.802616917E0,1.090171997E1
4.353838292E0,3.100172981E0,9.925763175E0,1.844968300E0,1.056104896E1
4.363797292E0,3.481961665E0,9.612308562E0,1.276858675E0,1.030295594E1
4.373756292E0,3.641330743E0,9.349551648E0,7.100295894E-1,1.005870507E1
4.383715292E0,3.518574298E0,9.062234674E0,5.851391295E-1,9.738934755E0
4.393674292E0,3.115341536E0,8.855823283E0,7.804654415E-1,9.420195604E0
4.403633292E0,2.608826188E0,8.730157263E0,9.295893212E-1,9.158916760E0
4.413591292E0,2.186259607E0,8.749745436E0,9.355884182E-1,9.067144090E0
4.423550292E0,1.892963562E0,8.964643475E0,1.048230496E0,9.222089289E0
4.433509292E0,1.582451414E0,9.268252546E0,1.343479803E0,9.497873221E0
4.443468292E0,1.000610333E0,9.310098145E0,1.965694592E0,9.567816038E0
4.453427292E0,2.768001723E-1,8.584125391E0,2.496828911E0,8.944159082E0
4.463386292E0,-6.778446141E-1,7.053541850E0,2.024550472E0,7.369581438E0
4.473345292E0,-2.490546078E0,4.370714763E0,-3.882293916E-1,5.045462255E0
4.483304292E0,-3.923561225E0,-1.137158899E0,-4.273871423E0,5.912143434E0
4.493263292E0,-1.733284873E0,-9.389980466E0,-2.323414821E0,9.827220667E0
4.503222292E0,-2.198251808E0,-2.004769810E1,-1.565140878E0,2.022849910E1
4.513181292E0,-9.766477420E0,-2.994228158E1,-4.600109804E0,3.182900120E1
4.523139292E0,-1.486830113E1,-3.552833719E1,5.771285172E-1,3.851833589E1
4.533098292E0,-8.357453399E0,-2.673751624E1,-3.666831036E0,2.825221145E1
4.543057292E0,-6.265123464E-1,-1.690505123E1,-7.244420112E0,1.840257856E1
4.553016292E0,-1.319610446E0,-1.583968737E1,2.423328826E-1,1.589640818E1
4.562975292E0,-2.503040408E0,-2.078848653E1,-2.927341858E0,2.114227314E1
4.572934292E0,-3.114151627E0,-2.320707969E1,-3.868057115E0,2.373243254E1
4.582893292E0,-4.721526652E0,-2.124518447E1,-5.672711349E-1,2.177090889E1
4.592852292E0,-6.045738564E0,-1.991851205E1,6.824131899E-1,2.082699606E1
4.602811292E0,-6.850708956E0,-1.889213158E1,1.743334191E-1,2.009664750E1
4.612770292E0,-7.022081491E0,-1.710834723E1,-4.248737459E-1,1.849826184E1
4.622729292E0,-5.361307354E0,-1.388413054E1,-1.478606472E0,1.495656961E1
4.632688292E0,-3.465928015E0,-1.019057889E1,-1.741700771E0,1.090385605E1
4.642646292E0,-1.224999281E0,-6.879626945E0,-1.990772423E0,7.265883634E0
4.652605292E0,4.988791770E-1,-3.655013813E0,-2.741413264E0,4.596014914E0
4.662564292E0,2.094326174E0,-6.039448714E-1,-2.718067671E0,3.484084298E0
4.672523292E0,3.697681238E0,2.351083553E0,-1.359400456E0,4.587854619E0
4.682482292E0,4.682027833E0,5.110369416E0,2.621272425E-1,6.935846804E0
4.692441292E0,5.376708920E0,7.399836180E0,1.024293019E0,9.204115954E0
4.702400292E0,5.151727358E0,9.852006397E0,1.286197994E0,1.119181085E1
4.712359292E0,4.631528940E0,1.177361430E1,1.224253687E0,1.271093431E1
4.722318292E0,4.493227379E0,1.249069461E1,1.018646874E0,1.331330859E1
4.732277292E0,3.879457139E0,1.252052125E1,4.654032096E-1,1.311602990E1
4.742236292E0,3.490958483E0,1.248437845E1,1.353139257E-1,1.296398111E1
4.752195292E0,3.230613838E0,1.282159439E1,1.641045193E-1,1.322335354E1
4.762154292E0,2.690612655E0,1.313338430E1,-7.097350359E-3,1.340616388E1
4.772112292E0,1.337828323E0,1.086598844E1,-8.053206396E-1,1.097761498E1
4.782071292E0,4.696442682E-1,7.605694424E0,-2.514560008E0,8.024348288E0
4.792030292E0,9.039891878E-1,6.169318882E0,-5.942694837E0,8.613554078E0
4.801989292E0,1.822534434E0,5.835597820E0,-8.191936265E0,1.022172458E1
4.811948292E0,2.694387909E0,6.389420359E0,-6.454403390E0,9.473317362E0
4.821907292E0,3.612048180E0,7.104029049E0,-3.116743698E0,8.557348424E0
4.831866292E0,4.336083459E0,7.869259424E0,1.338088524E0,9.083905797E0
4.841825292E0,3.884404468E0,9.211515259E0,4.319639919E0,1.089035814E1
4.851784292E0,2.655461825E0,1.090382460E1,4.668398266E0,1.215478551E1
4.861743292E0,2.156080665E0,1.099875765E1,5.205787790E0,1.235805730E1
4.871702292E0,3.084392223E0,1.004269579E1,4.866382649E0,1.157803499E1
4.881661292E0,3.175829812E0,9.818434024E0,3.294978526E0,1.083256319E1
4.891619292E0,2.975581387E0,9.526167966E0,2.254540175E0,1.023156450E1
4.901578292E0,2.597771149E0,9.454213300E0,1.900702937E0,9.987153534E0
4.911537292E0,2.207025993E0,9.267140406E0,1.681090872E0,9.673516504E0
4.921496292E0,2.000084260E0,8.977627802E0,1.165047267E0,9.271217457E0
4.931455292E0,1.998206719E0,8.782484581E0,3.271656029E-1,9.012874283E0
4.941414292E0,2.429325730E0,8.515923468E0,-5.882861741E-1,8.875170795E0
4.951373292E0,2.861509227E0,8.128905035E0,-8.652953844E-1,8.661181687E0
4.961332292E0,2.834864050E0,7.851927107E0,-1.371604764E-1,8.349133277E0
4.971291292E0,2.122841583E0,7.870949854E0,1.463369944E0,8.282497182E0
4.981250292E0,8.420225890E-1,8.090763062E0,3.229468660E0,8.752080712E0
4.991209292E0,-1.399545684E-2,7.675713077E0,4.732432294E0,9.017354520E0
5.001168292E0,-5.750565563E-1,5.652535531E0,4.012984156E0,6.955996680E0
5.011126292E0,-2.083772681E0,1.723866763E0,-2.527096438E0,3.701356726E0
5.021085292E0,-3.079214806E0,-3.550153356E0,-8.957631494E0,1.011554816E1
5.031044292E0,-1.392850769E0,-1.086306483E1,-2.459073440E0,1.122467162E1
5.041003292E0,-4.637192261E0,-2.217651729E1,-2.774347122E0,2.282539097E1
5.050962292E0,-1.307266798E1,-3.036526448E1,-5.891277931E0,3.358051654E1
5.060921292E0,-1.339329420E1,-3.023816706E1,1.817852861E0,3.312146836E1
5.070880292E0,-8.540318636E0,-2.087532002E1,-8.323423773E-2,2.255488763E1
5.080839292E0,-3.352536178E0,-1.656883399E1,-1.458869780E0,1.696744117E1
5.090798292E0,-2.975832233E0,-2.225784504E1,-2.025089586E0,2.254702267E1
5.100757292E0,-3.590417867E0,-2.586498068E1,-2.332952068E0,2.621699814E1
5.110716292E0,-3.462685441E0,-2.482324542E1,-1.156318178E0,2.509025260E1
5.120675292E0,-4.498162722E0,-2.279025274E1,-9.753287271E-1,2.325038395E1
5.130633292E0,-5.493410574E0,-2.043494516E1,-1.329718966E0,2.120218611E1
5.140592292E0,-5.353636976E0,-1.739114313E1,-9.438365006E-1,1.822098010E1
5.150551292E0,-4.638503499E0,-1.471142150E1,-8.479233067E-1,1.544864432E1
5.160510292E0,-3.927234738E0,-1.187109791E1,-1.462912691E0,1.258913229E1
5.170469292E0,-2.997252630E0,-7.728873623E0,-2.127871943E0,8.558437347E0
5.180428292E0,-2.285129299E0,-3.925211894E0,-2.622287940E0,5.244568463E0
5.190387917E0,-1.437183042E0,-7.218855500E-1,-2.757667354E0,3.192388304E0
5.200346917E0,2.088944104E-1,1.953054228E0,-2.020595416E0,2.817953784E0
5.210305917E0,2.170801907E0,4.704012487E0,-8.635062095E-1,5.252214521E0
5.220264917E0,4.264833089E0,7.152165082E0,-6.279395056E-1,8.350842752E0
5.230223917E0,5.970815266E0,9.288003271E0,-1.096213771E0,1.109591476E1
5.240182917E0,6.644153139E0,1.143900388E1,-1.137479911E0,1.327740340E1
5.250140917E0,6.691147796E0,1.313001981E1,-1.189647599E0,1.478459132E1
5.260099917E0,6.470747527E0,1.325977771E1,-1.213486771E0,1.480421658E1
5.270058917E0,5.879342594E0,1.270865893E1,-1.154390059E0,1.405024190E1
5.280017917E0,5.357783237E0,1.220713155E1,-5.589868728E-1,1.334287706E1
5.289976917E0,4.811132601E0,1.217603839E1,-4.674022995E-2,1.309217677E1
5.299935917E0,4.239563762E0,1.161760474E1,1.561487976E-1,1.236798380E1
5.309894917E0,3.486079274E0,8.938655525E0,-2.876397042E-1,9.598700323E0
5.319853917E0,3.033667628E0,6.459257163E0,-2.006721143E0,7.412966486E0
5.329812917E0,3.234388215E0,4.828997891E0,-5.966839160E0,8.329685307E0
5.339771917E0,3.897271559E0,4.155795089E0,-9.782866580E0,1.132094682E1
5.349730917E0,3.975144484E0,5.354802911E0,-7.592028311E0,1.010517599E1
5.359689917E0,3.276159262E0,7.467941625E0,-3.837786080E0,9.012878209E0
5.369648917E0,2.528366161E0,8.989127521E0,7.316109315E-3,9.337938882E0
5.379606917E0,1.973018084E0,1.022542947E1,3.174215981E0,1.088704989E1
5.389565917E0,1.140095663E0,1.127111394E1,5.966592407E0,1.280382961E1
5.399524917E0,6.475206614E-2,1.147034144E1,7.280365870E0,1.358589904E1
5.409483917E0,4.391039684E-1,1.115897604E1,6.690752524E0,1.301851481E1
5.419442917E0,5.738790733E-1,1.109337730E1,5.304933178E0,1.230994204E1
5.429401917E0,5.618569055E-1,1.067321743E1,4.231073313E0,1.149500913E1
5.439360917E0,5.752483450E-1,1.002587102E1,3.282573073E0,1.056523953E1
5.449319917E0,5.745867325E-1,9.430258427E0,2.454429581E0,9.761359971E0
5.459278917E0,7.407074448E-1,8.890140592E0,1.317902766E0,9.017766628E0
5.469237917E0,1.068370646E0,8.495158836E0,-3.810816821E-1,8.570552067E0
5.479196917E0,1.562084977E0,8.155109332E0,-1.621292567E0,8.460171823E0
5.489155917E0,1.784479293E0,8.091225577E0,-1.001042223E0,8.345920154E0
5.499114917E0,9.490878850E-1,8.356521937E0,1.403211158E0,8.526501525E0
5.509073917E0,-4.282516824E-1,8.621317776E0,3.436602767E0,9.290896527E0
5.519031917E0,-1.345194499E0,7.923955448E0,3.480909751E0,8.758729981E0
5.528990917E0,-2.163817408E0,6.033106239E0,-4.714200675E-1,6.426718724E0
5.538949917E0,-2.714933563E0,2.191386153E0,-9.592890544E0,1.020767292E1
5.548908917E0,-1.112576035E0,-2.306216113E0,-8.370528942E0,8.753411505E0
5.558867917E0,-1.853144901E-1,-1.113591696E1,2.036242565E0,1.132207012E1
5.568826917E0,-4.304899088E0,-2.584738758E1,-3.497215004E0,2.643577337E1
5.578785917E0,-8.915409919E0,-3.756365707E1,-5.678108329E0,3.902247789E1
5.588744917E0,-7.511389945E0,-3.852690165E1,2.002578683E0,3.930335165E1
5.598703917E0,-2.794591352E0,-2.470553161E1,-3.905529581E0,2.516795968E1
5.608662917E0,-4.598839496E-1,-1.624674012E1,-3.880133662E0,1.670998190E1
5.618621917E0,-2.294990921E0,-1.684611364E1,-1.617361338E0,1.707847727E1
5.628580917E0,-4.663426963E0,-2.055723616E1,-2.049614270E0,2.117896193E1
5.638538917E0,-4.464024630E0,-2.201904943E1,-2.249122291E0,2.257929593E1
5.648497917E0,-3.370884740E0,-2.086750346E1,-1.350357152E0,2.118110075E1
5.658456917E0,-4.017843777E0,-1.935833710E1,-1.021327311E0,1.979725722E1
5.668415917E0,-4.503388963E0,-1.694649630E1,-1.496339761E0,1.759838861E1
5.678374917E0,-5.055825419E0,-1.364811235E1,-1.996675772E0,1.469078132E1
5.688333917E0,-5.230984612E0,-1.041613875E1,-2.859405398E0,1.200147264E1
5.698292917E0,-4.633534535E0,-7.030993232E0,-3.483264717E0,9.112499174E0
5.708251917E0,-3.461554590E0,-3.362892766E0,-3.506048977E0,5.965214780E0
5.718210917E0,-2.099468215E0,-3.778529227E-1,-3.153327388E0,3.807100371E0
5.728169917E0,-2.271628663E-1,1.828911408E0,-2.597876984E0,3.185197753E0
5.738128917E0,2.106108606E0,3.790893749E0,-1.796999059E0,4.694227785E0
5.748087917E0,4.341852322E0,6.253123516E0,-6.707528186E-1,7.642195014E0
5.758046917E0,6.086742749E0,8.908315492E0,-3.605954139E-1,1.079520964E1
5.768004917E0,6.979762852E0,1.103098283E1,-5.198770766E-1,1.306407072E1
5.777963917E0,6.971589614E0,1.246893361E1,-3.502458787E-1,1.428985792E1
5.787922917E0,6.345681431E0,1.352452327E1,-4.959526090E-1,1.494745368E1
5.797881917E0,5.838343672E0,1.347422318E1,-4.673457277E-1,1.469215298E1
5.807840917E0,5.181436476E0,1.311297635E1,-3.243520689E-1,1.410328461E1
5.817799917E0,4.501864886E0,1.284547676E1,1.902836001E-1,1.361283469E1
5.827758917E0,3.871040949E0,1.220455760E1,5.554667759E-1,1.281579992E1
5.837717917E0,3.027066706E0,9.682606128E0,8.834908962E-1,1.018315032E1
5.847676917E0,2.489571932E0,7.361474937E0,8.241369065E-1,7.814632640E0
5.857635917E0,2.220618138E0,6.032121568E0,3.396273351E-1,6.436845676E0
5.867594917E0,2.120046906E0,5.235120347E0,-6.514979374E-1,5.685554810E0
5.877553917E0,2.307679671E0,5.098369761E0,-2.221847223E0,6.021242792E0
5.887512917E0,2.695205058E0,5.732542398E0,-3.948140581E0,7.464180243E0
5.897470917E0,2.903258639E0,7.434015495E0,-4.666927106E0,9.245199063E0
5.907429917E0,2.101821720E0,9.464809039E0,-3.152402358E0,1.019499413E1
5.917388917E0,1.357791302E0,1.080341621E1,-1.088184375E0,1.094264796E1
5.927347917E0,1.116427596E0,1.129184349E1,4.666067127E-1,1.135648985E1
5.937306917E0,1.246607081E0,1.122837430E1,1.752065545E0,1.143241673E1
5.947265917E0,1.636644724E0,1.085462379E1,2.608794905E0,1.128305253E1
5.957224917E0,1.892548117E0,1.053064009E1,2.632203648E0,1.101837625E1
5.967183917E0,1.966014581E0,1.010192341E1,2.336756705E0,1.055341186E1
5.977142917E0,2.257230187E0,9.448006480E0,2.200608966E0,9.960049919E0
5.987101917E0,2.669970229E0,8.959675680E0,2.139387449E0,9.590699035E0
5.997060917E0,2.726695530E0,8.781371856E0,1.789698225E0,9.367517276E0
6.007019917E0,2.640128087E0,8.803303007E0,1.417024766E0,9.299267678E0
6.016978917E0,2.387057378E0,8.553491828E0,1.148290316E0,8.954263567E0
6.026936917E0,1.847878021E0,8.019236412E0,1.129793307E0,8.306578040E0
6.036895917E0,1.230452832E0,7.350477494E0,1.572801754E0,7.616904812E0
6.046854917E0,7.879101165E-1,6.188064471E0,9.141772301E-1,6.304654174E0
6.056813917E0,-1.771837905E-2,2.880060103E0,-4.944845266E0,5.722460559E0
6.066772917E0,-1.690907324E0,-3.695261368E0,-1.292837507E1,1.355201115E1
6.076731917E0,-1.704456931E0,-1.384666976E1,-8.794340980E0,1.649169095E1
6.086690917E0,-2.883389215E-1,-2.554361303E1,-6.247261097E0,2.629805273E1
6.096649917E0,-4.498996827E0,-2.723713742E1,3.557802683E0,2.783452151E1
6.106608917E0,-1.211061390E1,-2.557499153E1,7.856573889E0,2.936788917E1
6.116567917E0,-1.202246244E1,-1.508044162E1,-2.539236720E0,1.945268737E1
6.126526917E0,-4.286486791E0,-9.988138933E0,-3.248802771E0,1.134423236E1
6.136485917E0,-2.477347743E0,-1.423574466E1,3.756001074E0,1.492987683E1
6.146444917E0,-4.362086611E0,-1.865889316E1,-2.006324409E0,1.926674418E1
6.156402917E0,-4.938282351E0,-2.205190143E1,-4.274884161E0,2.299886136E1
6.166361917E0,-5.080829283E0,-2.351061567E1,-1.475734612E0,2.409858229E1
6.176320917E0,-3.975929473E0,-2.284395123E1,-6.915911257E-1,2.319768137E1
6.186279917E0,-1.612733705E0,-2.131528090E1,-1.361601202E0,2.141952538E1
6.196241875E0,-1.140230441E-1,-1.987631387E1,-1.444990829E0,1.992909563E1
6.206200875E0,-3.730377406E-2,-1.858803543E1,-1.875305994E0,1.868243093E1
6.216159875E0,-9.393288821E-1,-1.533692155E1,-2.464575670E0,1.556205753E1
6.226118875E0,-2.518709777E0,-9.735575470E0,-3.244197797E0,1.056646336E1
6.236077875E0,-3.580271194E0,-4.647652345E0,-3.575097578E0,6.870250129E0
6.246036875E0,-3.920469510E0,-9.587457311E-1,-3.156192523E0,5.123555972E0
6.255995875E0,-2.595268833E0,1.667810091E0,-1.878530295E0,3.611909036E0
6.265954875E0,5.384110326E-1,3.391005009E0,4.144389510E-1,3.458404409E0
6.275913875E0,3.835228508E0,4.853312953E0,1.865041938E0,6.460805348E0
6.285871875E0,5.418616499E0,7.498372289E0,1.641017565E0,9.395740013E0
6.295830875E0,6.289770355E0,1.022353848E1,-1.000462106E0,1.204503527E1
6.305789875E0,5.843368185E0,1.188044995E1,-2.486741295E0,1.347122581E1
6.315748875E0,4.807754079E0,1.294500104E1,-2.015481441E0,1.395527559E1
6.325707875E0,4.059531793E0,1.370140856E1,-1.478780719E0,1.436646050E1
6.335666875E0,3.367776068E0,1.426959419E1,-1.131154393E0,1.470519447E1
6.345625875E0,2.313490342E0,1.411813494E1,-6.895235503E-1,1.432303789E1
6.355584875E0,8.828561810E-1,1.267347506E1,-7.465955179E-2,1.270440786E1
6.365543875E0,1.800977504E-1,9.600863222E0,8.216160256E-2,9.602903746E0
6.375502875E0,1.126061176E0,7.418885824E0,-6.018317608E-1,7.527953381E0
6.385461875E0,1.996959801E0,6.211772007E0,-2.274151736E0,6.909828220E0
6.395420875E0,2.737659352E0,5.821142918E0,-4.086016756E0,7.620762201E0
6.405379875E0,3.234434116E0,6.025406041E0,-4.611283833E0,8.248091937E0
6.415338875E0,3.242581041E0,7.012669228E0,-3.436816775E0,8.455978421E0
6.425296875E0,2.770614844E0,8.645845676E0,-1.571607606E0,9.213951624E0
6.435255875E0,1.894379173E0,1.008728198E1,1.898228395E-1,1.026537690E1
6.445214875E0,7.906982151E-1,1.097368713E1,1.742947397E0,1.113933923E1
6.455173875E0,-8.521147370E-3,1.120409316E1,2.994280783E0,1.159730544E1
6.465132875E0,-4.052120447E-2,1.090454030E1,3.645935426E0,1.149797748E1
6.475091875E0,5.575749895E-1,1.061025695E1,3.527370265E0,1.119512320E1
6.485050875E0,1.380957386E0,1.049736359E1,2.895735319E0,1.097665562E1
6.495009875E0,2.228636133E0,1.034081608E1,2.256737559E0,1.081629145E1
6.504968875E0,2.947183507E0,9.856342692E0,1.508440136E0,1.039753690E1
6.514927875E0,3.635098781E0,9.087112822E0,6.046125504E-1,9.805871655E0
6.524886875E0,4.348187487E0,8.492894794E0,-1.868665604E-1,9.543108273E0
6.534845875E0,4.718135559E0,8.217948189E0,-8.365587314E-1,9.512902086E0
6.544804875E0,4.531824265E0,8.163870215E0,-1.156493887E0,9.408702682E0
6.554763875E0,4.038515438E0,8.186935726E0,-1.023889415E0,9.186069511E0
6.564721875E0,3.246584922E0,8.143785614E0,-4.471528801E-1,8.778468174E0
6.574680875E0,1.943110453E0,7.848387203E0,1.087195099E0,8.158115781E0
6.584639875E0,5.242948307E-1,7.516878142E0,3.160175647E0,8.170988446E0
6.594598875E0,6.845408455E-2,6.540195492E0,4.411166385E0,7.889057733E0
6.604557875E0,1.417992188E-1,2.712122807E0,2.804643885E0,3.904067681E0
6.614516875E0,-1.481463714E0,-6.026725758E0,-6.261685009E0,8.816170214E0
6.624475875E0,-3.753942562E0,-2.012302661E1,-2.019382703E1,2.875445939E1
6.634434875E0,-3.483273195E0,-2.913200016E1,-6.574177170E0,3.006703230E1
6.644393875E0,-8.193803866E0,-3.127658111E1,1.263691359E1,3.471389538E1
6.654352875E0,-1.261975552E1,-2.760416715E1,-2.910382594E0,3.049128729E1
6.664311875E0,-8.156744798E0,-1.752213948E1,-8.888978165E0,2.127373475E1
6.674270875E0,-6.178531755E0,-1.850114932E1,4.307207569E0,1.997545538E1
6.684229875E0,-2.625015081E0,-1.960940017E1,2.918801707E0,1.999846700E1
6.694188875E0,-2.689288260E0,-1.980051992E1,-2.145968783E0,2.009721479E1
6.704146875E0,-3.610894817E0,-2.039053672E1,-1.480240184E0,2.076062765E1
6.714105875E0,-4.683840178E0,-2.165195188E1,1.285435371E0,2.219003657E1
6.724064875E0,-5.635745251E0,-2.136216387E1,6.258811395E-1,2.210193197E1
6.734023875E0,-6.149982140E0,-2.044517778E1,-5.963831060E-1,2.135844675E1
6.743982875E0,-6.589975762E0,-1.855262820E1,-2.003913310E0,1.978998389E1
6.753941875E0,-7.070771255E0,-1.405655674E1,-4.087351091E0,1.625696874E1
6.763900875E0,-6.229339381E0,-8.241643445E0,-6.048301399E0,1.197127001E1
6.773859875E0,-4.265152640E0,-3.635924993E0,-5.753945546E0,8.032394845E0
6.783818875E0,-1.855644585E0,-4.752441466E-1,-3.856652706E0,4.306163480E0
6.793777875E0,1.228283369E0,1.751645131E0,-7.903073287E-1,2.280685505E0
6.803736875E0,4.113203970E0,3.861705285E0,1.297010665E0,5.789080348E0
6.813695875E0,5.601716795E0,7.321384673E0,8.232002556E-1,9.255245174E0
6.823654875E0,6.435553136E0,1.089583029E1,-1.452734882E0,1.273757828E1
6.833612875E0,7.252389282E0,1.293919827E1,-2.145543398E0,1.498744003E1
6.843571875E0,7.593163256E0,1.382522218E1,-2.459858136E0,1.596382782E1
6.853530875E0,7.267667472E0,1.372013134E1,-2.432869728E0,1.571559256E1
6.863489875E0,6.880408133E0,1.333722642E1,-1.689068813E0,1.510213820E1
6.873448875E0,6.354605452E0,1.284481251E1,-9.181987989E-1,1.436012911E1
6.883407875E0,5.366616041E0,1.283096397E1,-8.461798131E-1,1.393377997E1
6.893366875E0,4.257756204E0,1.133803649E1,-1.048976455E0,1.215647609E1
6.903325875E0,3.058305748E0,8.076417503E0,-9.839168251E-1,8.691941443E0
6.913284875E0,2.315179310E0,6.419384415E0,-1.205380118E0,6.929754161E0
6.923243875E0,1.829599040E0,5.361830680E0,-1.717628953E0,5.920043083E0
6.933202875E0,1.702408359E0,5.380951660E0,-2.327136866E0,6.104785088E0
6.943161875E0,1.797167166E0,6.327149266E0,-2.481567678E0,7.029993300E0
6.953120875E0,1.683732060E0,8.187986471E0,-1.707658281E0,8.531950123E0
6.963079875E0,1.058999459E0,1.000928480E1,-2.678468792E-1,1.006871412E1
6.973037875E0,2.209101462E-1,1.094002120E1,1.179819599E0,1.100567306E1
6.982996875E0,-3.841614836E-1,1.122625878E1,1.927216551E0,1.139695705E1
6.992955875E0,-5.167602548E-1,1.119014521E1,2.397561901E0,1.145577121E1
7.002914875E0,-2.713774645E-1,1.073683748E1,2.900777957E0,1.112509944E1
7.012873875E0,3.737046155E-1,1.011274193E1,3.093069491E0,1.058179018E1
7.022832875E0,1.321868640E0,9.515983871E0,2.974859841E0,1.005738916E1
7.032791875E0,2.270618264E0,9.026576598E0,2.240152516E0,9.573561285E0
7.042750875E0,3.075481359E0,8.681604908E0,1.271851265E0,9.297658577E0
7.052709875E0,3.488506453E0,8.418838638E0,4.371121875E-1,9.123463616E0
7.062668875E0,3.546438327E0,8.254620756E0,-5.526671290E-2,8.984377721E0
7.072627875E0,3.065351350E0,8.315876187E0,1.307484198E-1,8.863818072E0
7.082586875E0,2.221055510E0,8.557459164E0,1.044421474E0,8.902472193E0
7.092545875E0,1.067614747E0,8.684309245E0,2.259030691E0,9.036605999E0
7.102504875E0,1.149074355E-1,8.530451460E0,3.208998728E0,9.114794494E0
7.112462875E0,-3.080231345E-1,8.089535732E0,3.386108551E0,8.775032634E0
7.122421875E0,-5.067429511E-1,6.677188153E0,2.496131923E0,7.146488972E0
7.132380875E0,-1.147721894E0,2.722065997E0,-1.890611666E0,3.507323953E0
7.142339875E0,-1.731370349E0,-4.757435573E0,-1.076362474E1,1.189480786E1
7.152298875E0,-1.277178079E-2,-1.618491517E1,-1.310240107E1,2.082365376E1
7.162257875E0,2.976105590E-1,-2.599052742E1,2.328922606E-1,2.599327464E1
7.172216875E0,-5.876359345E0,-3.000492631E1,7.083404750E0,3.138473873E1
7.182175875E0,-9.423719485E0,-2.849980622E1,-3.769667479E0,3.025319548E1
7.192131000E0,-7.592445218E0,-1.923904221E1,-6.844600954E0,2.178610868E1
7.202090000E0,-5.257139792E0,-1.516691960E1,1.296302859E0,1.610445187E1
7.212049000E0,-3.808604380E0,-1.358740305E1,1.219339176E0,1.416367809E1
7.222008000E0,-5.164866636E0,-1.728789183E1,-2.504569163E0,1.821592485E1
7.231966000E0,-4.201792211E0,-2.112464763E1,-3.215392073E0,2.177715642E1
7.241925000E0,-3.529410358E0,-2.182442603E1,-1.245607792E0,2.214303158E1
7.251884000E0,-3.705014231E0,-2.253699813E1,-2.271474881E0,2.295218973E1
7.261843000E0,-4.188310578E0,-2.218597808E1,-2.907121017E0,2.276424656E1
7.271802000E0,-4.290468452E0,-2.037903174E1,-2.895387994E0,2.102608679E1
7.281761000E0,-4.511536766E0,-1.709589266E1,-3.113233030E0,1.795315375E1
7.291720000E0,-5.061984876E0,-1.194532597E1,-3.631222662E0,1.347220403E1
7.301679000E0,-5.198337268E0,-6.708166702E0,-3.588823332E0,9.214220735E0
7.311638000E0,-4.176855590E0,-2.943025260E0,-3.069364879E0,5.960580598E0
7.321597000E0,-1.789083098E0,-4.693133157E-1,-2.675738508E0,3.252791091E0
7.331556000E0,1.572399319E0,1.264821158E0,-2.097507352E0,2.910626955E0
7.341515000E0,5.122819308E0,3.122828311E0,-8.095961237E-1,6.053988785E0
7.351474000E0,7.276959282E0,5.537033141E0,-7.221919441E-1,9.172482412E0
7.361433000E0,7.580753710E0,8.396422752E0,-1.384198498E0,1.139665509E1
7.371391000E0,6.994807738E0,1.139360843E1,-6.696441865E-1,1.338618959E1
7.381350000E0,6.013015791E0,1.355887683E1,-1.291462096E-1,1.483294234E1
7.391309000E0,5.509949423E0,1.423169254E1,1.879588202E-1,1.526223915E1
7.401268000E0,5.039708154E0,1.419167186E1,2.799097582E-1,1.506255483E1
7.411227000E0,4.486011623E0,1.386548727E1,2.996101606E-1,1.457620677E1
7.421186000E0,3.971161069E0,1.377022210E1,5.585025772E-1,1.434228231E1
7.431145000E0,3.477385926E0,1.231548513E1,4.743929382E-1,1.280579695E1
7.441104000E0,2.499794911E0,9.299149818E0,1.895514556E-1,9.631152148E0
7.451063000E0,2.023053585E0,7.344809203E0,-4.534726238E-1,7.631815345E0
7.461022000E0,1.732117184E0,6.017336299E0,-1.458446296E0,6.429279250E0
7.470981000E0,1.677567632E0,5.599436381E0,-2.393436105E0,6.316364250E0
7.480940000E0,1.854100628E0,6.383466139E0,-2.558425820E0,7.122630958E0
7.490898000E0,1.960407686E0,8.028960332E0,-1.646151274E0,8.427171312E0
7.500857000E0,1.935349736E0,9.187603070E0,7.820775189E-2,9.389555113E0
7.510816000E0,1.821280791E0,9.737372319E0,1.570490788E0,1.002995138E1
7.520775000E0,1.620019044E0,1.000493915E1,2.352819006E0,1.040475980E1
7.530734000E0,1.557233689E0,1.009494184E1,2.355918031E0,1.048251769E1
7.540693000E0,1.631379599E0,1.014777494E1,2.112141763E0,1.049284892E1
7.550652000E0,1.833637127E0,1.013172316E1,1.865452412E0,1.046393578E1
7.560611000E0,2.133657178E0,9.955545384E0,1.488353781E0,1.028982866E1
7.570570000E0,2.506453136E0,9.760464728E0,1.070316380E0,1.013383226E1
7.580529000E0,2.785435781E0,9.513169606E0,7.312656534E-1,9.939506924E0
7.590488000E0,3.076126599E0,9.164362727E0,4.887687564E-1,9.679204200E0
7.600447000E0,3.267696002E0,8.901926240E0,1.980919719E-1,9.484796696E0
7.610406000E0,3.169929387E0,8.786776437E0,-1.503388580E-1,9.342295984E0
7.620364000E0,3.073973655E0,8.661859446E0,-4.721650028E-1,9.203263708E0
7.630323000E0,2.901117096E0,8.441594832E0,-7.346452709E-1,8.956378028E0
7.640282000E0,2.380239524E0,7.928712158E0,-7.529354346E-1,8.312456222E0
7.650241000E0,1.501360912E0,7.183143046E0,-4.016651237E-1,7.349351228E0
7.660200000E0,3.328186910E-1,6.029790283E0,-8.925572965E-1,6.104571866E0
7.670159000E0,-1.131775660E0,3.435515769E0,-3.569378416E0,5.081746454E0
7.680118000E0,-1.969178217E0,-2.426151277E0,-4.732146950E0,5.670721967E0
7.690077000E0,-3.863707079E-1,-1.370745341E1,-3.750053579E0,1.421641527E1
7.700036000E0,4.135644999E-1,-2.871714957E1,-4.914887642E0,2.913763606E1
7.709995000E0,-4.609236723E0,-3.471287514E1,-1.695741656E0,3.505858388E1
7.719954000E0,-1.181585575E1,-3.169697954E1,4.599049996E0,3.413889600E1
7.729913000E0,-1.013766627E1,-1.481777066E1,7.108939540E-1,1.796785950E1
7.739872000E0,-4.753692770E0,-9.704856538E0,1.345124187E0,1.088995842E1
7.749830000E0,-1.659069673E0,-1.384139207E1,2.949616534E0,1.424910117E1
7.759789000E0,-5.812700708E0,-1.634940904E1,-1.993429544E0,1.746609364E1
7.769748000E0,-8.604151520E0,-1.857349341E1,-3.379657903E0,2.074676284E1
7.779707000E0,-6.825860628E0,-1.954422710E1,-5.625129631E-1,2.070955352E1
7.789666000E0,-6.676132146E0,-2.161415781E1,-7.977487877E-2,2.262186824E1
7.799625000E0,-6.127663903E0,-2.261146126E1,-1.132294600E0,2.345439268E1
7.809584000E0,-5.286218580E0,-2.165932639E1,-2.092515145E0,2.239306022E1
7.819543000E0,-5.054762396E0,-1.928407044E1,-2.312270612E0,2.006919508E1
7.829502000E0,-5.143235446E0,-1.515460537E1,-2.599651029E0,1.621336240E1
7.839461000E0,-5.174751939E0,-9.745281848E0,-3.162928223E0,1.147835750E1
7.849420000E0,-5.771686583E0,-3.947916632E0,-4.036163396E0,8.073972176E0
7.859378000E0,-5.174629732E0,6.219478637E-1,-4.171809443E0,6.675897396E0
7.869337000E0,-2.225361107E0,3.871968318E0,-3.262089107E0,5.530424582E0
7.879296000E0,2.147123315E0,5.272284665E0,-1.907590957E0,6.003834390E0
7.889255000E0,6.235622215E0,5.383748968E0,-9.168071616E-1,8.289045344E0
7.899214000E0,8.863595402E0,6.774741930E0,-4.226414982E-1,1.116418727E1
7.909173000E0,9.346609914E0,1.035257250E1,-1.329611231E0,1.401080798E1
7.919132000E0,8.206494663E0,1.231658207E1,-2.640728889E0,1.503390161E1
7.929091000E0,7.646203934E0,1.218484313E1,-1.855270071E0,1.450437395E1
7.939050000E0,7.261837213E0,1.238563534E1,-8.942462647E-1,1.438533694E1
7.949009000E0,6.694300615E0,1.268462453E1,1.301555121E-1,1.434330160E1
7.958968000E0,5.764055382E0,1.294321180E1,6.288715518E-1,1.418261420E1
7.968927000E0,4.730291921E0,1.287601559E1,5.973423051E-1,1.373041358E1
7.978885000E0,3.342070539E0,1.021947583E1,6.941697478E-2,1.075229931E1
7.988844000E0,2.646343385E0,7.615040029E0,-1.421419533E0,8.186110275E0
7.998803000E0,2.224369127E0,5.519866301E0,-3.487433782E0,6.897748645E0
8.008762000E0,2.089881121E0,4.360445883E0,-5.158868562E0,7.070715398E0
8.018721000E0,2.302059035E0,4.697979915E0,-5.085227559E0,7.295891337E0
8.028680000E0,2.323960074E0,6.316036048E0,-3.291719288E0,7.491896799E0
8.038639000E0,2.061570364E0,8.597058263E0,-1.048940202E0,8.902794993E0
8.048598000E0,1.565744603E0,1.031999649E1,1.165598001E0,1.050297588E1
8.058557000E0,9.616944820E-1,1.126743838E1,2.903728462E0,1.167525858E1
8.068516000E0,2.308200073E-1,1.164790735E1,3.824231064E0,1.226180112E1
8.078475000E0,-1.797439939E-1,1.151738931E1,3.904436152E0,1.216253206E1
8.088434000E0,5.282053024E-2,1.123569619E1,3.143449101E0,1.166725894E1
8.098393000E0,6.752300316E-1,1.088695421E1,2.428819946E0,1.117501114E1
8.108351000E0,1.356957197E0,1.023677891E1,1.899358077E0,1.049954935E1
8.118310000E0,2.158485040E0,9.863857534E0,1.625854565E0,1.022732351E1
8.128269000E0,2.850334028E0,9.437756896E0,1.038256170E0,9.913305966E0
8.138228000E0,3.358646518E0,8.819579902E0,-3.396542323E-1,9.443561885E0
8.148187000E0,3.638317966E0,8.335698833E0,-1.817725099E0,9.274985563E0
8.158146000E0,3.672722982E0,7.995324808E0,-2.443399394E0,9.131501163E0
8.168105000E0,3.498088578E0,7.774640949E0,-1.769932297E0,8.707142237E0
8.178064000E0,3.121935149E0,7.740438831E0,2.766084567E-1,8.350891246E0
8.188023000E0,2.427594370E0,7.724106973E0,3.066685685E0,8.657921462E0
8.197986625E0,1.457157423E0,7.498930698E0,5.064052452E0,9.165254858E0
8.207945625E0,7.759734643E-1,6.600251074E0,5.823068991E0,8.835925618E0
8.217904625E0,6.683601379E-2,4.944962211E0,4.946369051E0,6.994546812E0
8.227862625E0,-9.116870472E-1,8.713164085E-1,-2.477604143E-1,1.285204567E0
8.237821625E0,-1.225092836E0,-9.551340230E0,-1.372772921E1,1.676840785E1
8.247780625E0,-1.116798017E0,-2.246471018E1,-1.631971220E1,2.778926857E1
8.257739625E0,-6.737240812E0,-2.704160653E1,2.610363128E0,2.799022853E1
8.267698625E0,-1.401741899E1,-3.742287716E1,4.887192012E0,4.025971207E1
8.277657625E0,-1.178052805E1,-3.402997181E1,-7.385698782E0,3.676096257E1
8.287616625E0,-5.158245249E0,-1.972241047E1,-5.632447422E0,2.114959652E1
8.297575625E0,-4.358570388E0,-1.680662856E1,9.739794821E-2,1.736287378E1
8.307534625E0,-6.670846848E0,-1.875823034E1,-1.076203284E0,1.993814477E1
8.317493625E0,-8.567380720E0,-2.095497079E1,-4.606659855E0,2.310264332E1
8.327452625E0,-7.246602877E0,-2.104967229E1,-3.472932687E0,2.253138297E1
8.337410625E0,-6.162427939E0,-1.963233996E1,-1.344258506E0,2.062065279E1
8.347369625E0,-5.582355494E0,-1.842916308E1,-1.031187178E0,1.928367422E1
8.357328625E0,-5.138651229E0,-1.709484250E1,-9.284325957E-1,1.787460107E1
8.367287625E0,-4.587847608E0,-1.438657944E1,-1.616992671E0,1.518672706E1
8.377246625E0,-4.525150546E0,-1.004466864E1,-2.851275430E0,1.137990014E1
8.387205625E0,-4.093406760E0,-5.204409601E0,-3.767218373E0,7.617991367E0
8.397164625E0,-2.708368894E0,-1.671989096E0,-4.046999456E0,5.148690533E0
8.407123625E0,-8.727580395E-1,1.387893938E0,-4.164394004E0,4.475503726E0
8.417082625E0,1.620329823E0,3.587850355E0,-3.520205086E0,5.281096738E0
8.427041625E0,4.414113967E0,4.482596557E0,-1.698176436E0,6.516277865E0
8.437000625E0,6.386756367E0,5.576810580E0,5.217891526E-1,8.494924194E0
8.446959625E0,7.190689462E0,8.475274794E0,1.481995518E0,1.121305527E1
8.456917625E0,7.409318025E0,1.134054846E1,1.040096873E0,1.358631055E1
8.466876625E0,7.394581872E0,1.250896599E1,1.204856207E0,1.458100647E1
8.476835625E0,6.750572464E0,1.294860527E1,9.389353645E-1,1.463277850E1
8.486794625E0,5.878277231E0,1.303987913E1,4.929226549E-1,1.431207755E1
8.496753625E0,5.160109341E0,1.316966744E1,3.623309040E-1,1.414913964E1
8.506712625E0,4.646522078E0,1.326222185E1,1.885621433E-1,1.405390520E1
8.516671625E0,4.268359838E0,1.247569884E1,8.069625378E-2,1.318591935E1
8.526630625E0,3.122537704E0,1.017332493E1,1.720613372E-1,1.064313802E1
8.536589625E0,1.927739292E0,8.180990278E0,2.067037876E-1,8.407586286E0
8.546548625E0,1.204572617E0,6.678138911E0,-4.099365950E-2,6.786030871E0
8.556507625E0,9.272596443E-1,5.566748691E0,-1.318833643E0,5.795500291E0
8.566466625E0,9.780587921E-1,5.387152047E0,-2.856819760E0,6.175712535E0
8.576424625E0,1.068817227E0,6.619365622E0,-3.165400718E0,7.414724082E0
8.586383625E0,8.041090965E-1,8.746111976E0,-2.319371763E0,9.084082315E0
8.596342625E0,5.423535177E-1,1.014104596E1,-1.020912158E0,1.020672436E1
8.606301625E0,5.537272292E-1,1.067017454E1,1.048643310E-2,1.068453782E1
8.616260625E0,1.110458173E0,1.064580568E1,5.737920228E-1,1.071893340E1
8.626219625E0,2.004093696E0,1.018047608E1,4.466828736E-1,1.038547111E1
8.636178625E0,2.808285531E0,9.587620448E0,1.648914814E-3,9.990442243E0
8.646137625E0,3.496019248E0,9.082332723E0,-3.665713779E-1,9.738854802E0
8.656096625E0,4.047748776E0,8.669857267E0,-5.463767675E-1,9.583800017E0
8.666055625E0,4.355927739E0,8.366035357E0,-1.957098893E-1,9.434137821E0
8.676014625E0,4.343022642E0,8.349303550E0,4.926958195E-1,9.424195700E0
8.685973625E0,3.952769237E0,8.477186834E0,9.958206598E-1,9.406313839E0
8.695931625E0,3.649346984E0,8.571032306E0,1.283675505E0,9.403624354E0
8.705890625E0,3.630420424E0,8.615849460E0,1.366881384E0,9.448871842E0
8.715849625E0,3.293362063E0,8.724473770E0,1.319844042E0,9.418315376E0
8.725808625E0,2.212799534E0,8.435607283E0,1.244896771E0,8.809410876E0
8.735767625E0,9.864989555E-1,7.916224844E0,1.752410385E0,8.167664179E0
8.745726625E0,-5.186187923E-2,6.542347267E0,2.418362639E0,6.975204318E0
8.755685625E0,-4.890698880E-1,2.846852596E0,-5.822981867E-1,2.946664256E0
8.765644625E0,-2.319605360E0,-4.191428021E0,-9.327824564E0,1.048603590E1
8.775603625E0,-6.030974929E0,-1.744802368E1,-1.284141411E1,2.248795467E1
8.785562625E0,-5.110150731E0,-3.534016678E1,-1.829512852E1,4.012172424E1
8.795521625E0,-8.030803374E0,-3.784544141E1,-8.765845159E0,3.966876957E1
8.805480625E0,-1.103495426E1,-2.418347115E1,1.218916773E1,2.924356856E1
8.815438625E0,-6.627595578E0,-7.946314616E0,1.407482695E1,1.746910681E1
8.825397625E0,-7.066903907E-1,-1.133117069E1,1.023032359E0,1.139918575E1
8.835356625E0,3.531519156E0,-2.045442574E1,-3.680467035E0,2.108082061E1
8.845315625E0,1.175101189E0,-2.290787065E1,-3.183881721E0,2.315790369E1
8.855274625E0,-3.848062561E0,-2.010974407E1,-1.610071322E0,2.053781200E1
8.865233625E0,-7.495863833E0,-1.798951561E1,-1.665222698E0,1.955974471E1
8.875192625E0,-9.826803728E0,-1.842170788E1,-2.248248425E0,2.099952413E1
8.885151625E0,-7.980334302E0,-1.974042458E1,-2.864924001E0,2.148436379E1
8.895110625E0,-5.113654382E0,-1.916156075E1,-3.553793832E0,2.014806001E1
8.905069625E0,-4.210239391E0,-1.625194882E1,-3.516237166E0,1.715272223E1
8.915028625E0,-3.743661987E0,-1.220666026E1,-3.046602838E0,1.312628465E1
8.924986625E0,-3.028454542E0,-8.000683197E0,-3.457256302E0,9.226867815E0
8.934945625E0,-3.179961163E0,-3.427776394E0,-4.693641865E0,6.625109657E0
8.944904625E0,-4.115860068E0,5.200922906E-1,-5.052300718E0,6.537319224E0
8.954863625E0,-2.656614312E0,3.347963655E0,-4.734094073E0,6.377939081E0
8.964822625E0,5.735311639E-1,4.575653239E0,-4.014998814E0,6.114389261E0
8.974781625E0,3.494098730E0,4.941996503E0,-2.693736237E0,6.624822284E0
8.984740625E0,5.641728707E0,6.132214206E0,-3.020706689E-1,8.338129320E0
8.994699625E0,6.077967247E0,8.835144605E0,7.931093144E-1,1.075316179E1
9.004658625E0,5.853775059E0,1.093401494E1,8.403980863E-1,1.243083401E1
9.014617625E0,6.046008705E0,1.151025571E1,1.298482994E0,1.306622615E1
9.024576625E0,5.955127771E0,1.200240649E1,1.489975798E0,1.348114744E1
9.034535625E0,5.599059820E0,1.265007450E1,1.547227056E0,1.392004912E1
9.044493625E0,5.126655082E0,1.299655945E1,1.456402255E0,1.404685935E1
9.054452625E0,4.727196112E0,1.290813786E1,1.127221483E0,1.379264421E1
9.064411625E0,4.184744654E0,1.161658381E1,6.631186207E-1,1.236514592E1
9.074370625E0,2.782196132E0,8.768449509E0,5.332207516E-2,9.199411142E0
9.084329625E0,1.797826147E0,6.720818322E0,-7.054372593E-1,6.992797688E0
9.094288625E0,1.385592181E0,5.693054397E0,-1.513680410E0,6.051608252E0
9.104247625E0,1.309496809E0,5.752704767E0,-1.892380010E0,6.195925769E0
9.114206625E0,1.520317877E0,6.665894256E0,-1.504039521E0,7.000546233E0
9.124165625E0,1.760125640E0,8.212685110E0,-4.446749762E-1,8.410943753E0
9.134124625E0,1.731443000E0,9.579291674E0,6.241412274E-1,9.754500301E0
9.144083625E0,1.382089699E0,1.032259967E1,1.572781727E0,1.053280011E1
9.154042625E0,1.021769068E0,1.072453727E1,1.626041676E0,1.089512383E1
9.164000625E0,1.070531923E0,1.103421985E1,1.279825698E0,1.115965949E1
9.173959625E0,1.456838165E0,1.101890014E1,6.598044920E-1,1.113435583E1
9.183918625E0,2.073131771E0,1.063358968E1,-3.582752021E-1,1.083971706E1
9.193873667E0,2.776526964E0,1.010240288E1,-1.177168472E0,1.054292993E1
9.203832667E0,3.184549765E0,9.343547142E0,-1.515856744E0,9.987044211E0
9.213791667E0,3.175931846E0,8.623745540E0,-1.263614731E0,9.276435329E0
9.223750667E0,3.191951171E0,8.094429851E0,-7.074474590E-1,8.729766824E0
9.233709667E0,3.445994857E0,7.683646579E0,-3.304480836E-2,8.421068654E0
9.243668667E0,3.720469884E0,7.526702634E0,6.313520137E-1,8.419724108E0
9.253627667E0,3.815373410E0,7.672317014E0,8.297153695E-1,8.608713622E0
9.263586667E0,3.799041259E0,7.997616332E0,9.754164353E-1,8.907638223E0
9.273545667E0,3.622922831E0,8.186902397E0,1.577908566E0,9.090695031E0
9.283503667E0,2.888970967E0,7.695124664E0,2.399358311E0,8.562594066E0
9.293462667E0,1.844549932E0,6.545797709E0,3.571600943E0,7.681547070E0
9.303421667E0,1.252869888E0,4.547470245E0,3.431379156E0,5.832969355E0
9.313380667E0,5.276382686E-1,-1.342970949E-1,-2.416911507E-1,5.956949425E-1
9.323339667E0,-9.317611232E-1,-8.831249190E0,-6.575447186E0,1.104968989E1
9.333298667E0,-3.889657022E0,-2.311329035E1,-1.467819178E1,2.765507072E1
9.343257667E0,-5.916893413E0,-3.090668859E1,-1.062579417E1,3.321355941E1
9.353216667E0,-9.568780720E0,-2.906560854E1,1.470071291E1,3.394822712E1
9.363175667E0,-1.214423656E1,-1.957899114E1,6.411714038E0,2.391504657E1
9.373134667E0,-8.812605343E0,-1.380232214E1,-5.093266311E0,1.714956184E1
9.383093667E0,-3.059371988E0,-1.901881969E1,-1.335232744E0,1.930953407E1
9.393052667E0,-4.347921731E0,-2.052310012E1,1.180877653E0,2.101181891E1
9.403011667E0,-7.791548173E0,-2.281891111E1,-1.659903925E0,2.416953058E1
9.412969667E0,-9.386596098E0,-2.659253803E1,-3.005964689E0,2.836030834E1
9.422928667E0,-8.975728626E0,-2.581914319E1,-2.615392903E0,2.745964565E1
9.432887667E0,-8.178805758E0,-2.369734300E1,-2.427020904E0,2.518625338E1
9.442846667E0,-7.812802218E0,-2.123831283E1,-2.081879937E0,2.272531703E1
9.452805667E0,-7.966298060E0,-1.684955648E1,-2.996386950E0,1.887717651E1
9.462764667E0,-8.525240421E0,-1.094650693E1,-4.048282335E0,1.445317710E1
9.472723667E0,-8.357585546E0,-5.536170677E0,-4.526875767E0,1.099959209E1
9.482682667E0,-6.755378290E0,-2.041910856E0,-4.572441949E0,8.409028551E0
9.492641667E0,-2.938038170E0,4.835179567E-1,-3.926442733E0,4.927759170E0
9.502600667E0,2.806746544E0,1.689971039E0,-1.201904387E0,3.489756786E0
9.512559667E0,7.339599334E0,2.879629748E0,1.506422846E0,8.026910717E0
9.522517667E0,9.302262291E0,5.799664925E0,3.923154259E-1,1.096914347E1
9.532476667E0,9.568072622E0,9.094528261E0,-8.328657031E-1,1.322694686E1
9.542435667E0,9.211574900E0,1.196764129E1,-3.502072871E-1,1.510629654E1
9.552394667E0,8.932589623E0,1.321945531E1,-4.678357244E-2,1.595453995E1
9.562353667E0,8.585589534E0,1.260514684E1,3.918312764E-1,1.525633004E1
9.572312667E0,7.485885560E0,1.228143562E1,9.598086818E-1,1.441503993E1
9.582271667E0,6.080505524E0,1.257478575E1,1.153522186E0,1.401529156E1
9.592230667E0,5.099667842E0,1.284678887E1,1.055744022E0,1.386222175E1
9.602189667E0,4.184726235E0,1.215463992E1,9.595573977E-1,1.289061502E1
9.612148667E0,2.613582020E0,9.828403527E0,6.514570069E-1,1.019081562E1
9.622107667E0,1.311522577E0,7.591146551E0,-6.776489516E-1,7.733356680E0
9.632066667E0,4.702129099E-1,5.300831357E0,-4.997477224E0,7.300321353E0
9.642025667E0,1.892425033E-1,4.340541376E0,-8.040328488E0,9.139091550E0
9.651983667E0,4.923428670E-1,5.235113915E0,-7.248132509E0,8.954565543E0
9.661942667E0,1.163917219E0,7.117108685E0,-5.271354958E0,8.932811563E0
9.671901667E0,1.538411209E0,9.139082875E0,-2.769858799E0,9.672727775E0
9.681860667E0,1.127998358E0,1.025220855E1,3.188499121E-1,1.031900313E1
9.691819667E0,7.832205033E-1,1.085193875E1,4.133538247E0,1.163890662E1
9.701778667E0,2.762391320E-1,1.118710115E1,5.449521958E0,1.244688032E1
9.711737667E0,3.160750428E-1,1.120613150E1,5.300457720E0,1.240048945E1
9.721696667E0,9.477912650E-1,1.093593400E1,4.974923344E0,1.205167304E1
9.731655667E0,1.936674423E0,1.062841840E1,3.931566063E0,1.149657328E1
9.741614667E0,3.056483463E0,1.052773870E1,2.338752944E0,1.120915424E1
9.751573667E0,3.828772304E0,1.011344126E1,7.205910496E-1,1.083791691E1
9.761532667E0,4.110688790E0,9.411620427E0,-5.000540288E-1,1.028233512E1
9.771491667E0,3.961379262E0,8.656270092E0,-9.450503826E-1,9.566433912E0
9.781449667E0,3.857327474E0,8.117169088E0,-7.748728721E-1,9.020412253E0
9.791408667E0,3.626159265E0,7.695999992E0,-4.578017561E-1,8.519802189E0
9.801367667E0,3.193072959E0,7.556336907E0,-1.230919294E-1,8.204211967E0
9.811326667E0,2.702979808E0,7.731367460E0,5.292197943E-1,8.207326985E0
9.821285667E0,1.949910765E0,7.947077093E0,2.700224308E0,8.616809016E0
9.831244667E0,9.949718633E-1,8.043167312E0,6.262688391E0,1.024225440E1
9.841203667E0,3.711713094E-1,8.083632383E0,7.486986591E0,1.102442057E1
9.851162667E0,-6.067509502E-2,7.427522162E0,6.097913854E0,9.610219576E0
9.861121667E0,-1.342443969E0,4.864877576E0,2.173806499E0,5.494963542E0
9.871080667E0,-4.454762348E0,-2.956236459E0,-1.601643233E1,1.688521087E1
9.881039667E0,-4.788954696E0,-1.243371700E1,-1.927171294E1,2.342926215E1
9.890998667E0,-2.612723942E0,-1.866912579E1,5.856808594E0,1.973992885E1
9.900957667E0,-7.710946645E0,-2.438692151E1,1.020994166E0,2.559732541E1
9.910915667E0,-1.419596489E1,-3.756834653E1,-1.101486089E1,4.164412612E1
9.920874667E0,-8.241300799E0,-3.570178666E1,-2.156134752E0,3.670402603E1
9.930833667E0,6.608084589E-2,-2.309551482E1,-3.932017176E0,2.342793056E1
9.940792667E0,2.289851803E0,-1.847435738E1,-2.346401395E-1,1.861720596E1
9.950751667E0,4.651126760E-1,-2.001822813E1,-6.820261042E-1,2.003524262E1
9.960710667E0,-2.866908838E0,-2.312983797E1,-2.041153788E0,2.339604410E1
9.970669667E0,-5.241756937E0,-2.276736440E1,-3.132221863E-1,2.336508090E1
9.980628667E0,-7.488716197E0,-2.034631306E1,1.966484405E0,2.176971259E1
9.990587667E0,-9.754835029E0,-1.791589683E1,2.406627570E0,2.054088659E1
1.000054667E1,-1.141162370E1,-1.543856487E1,1.640382703E0,1.926824580E1
1.001050567E1,-1.147322646E1,-1.207206788E1,7.274754882E-2,1.665458017E1
1.002046467E1,-1.064697747E1,-8.198002167E0,-2.350347973E0,1.364146269E1
1.003042267E1,-8.850022845E0,-4.464294772E0,-5.056845174E0,1.112764644E1
1.004038167E1,-5.377076125E0,-2.191959180E0,-7.106457982E0,9.177111624E0
1.005034067E1,-2.195261103E-1,-1.071166638E0,-6.218816732E0,6.314211845E0
1.006029967E1,3.892383286E0,-3.455616742E-1,-4.314428880E0,5.821027150E0
1.007025867E1,7.698206731E0,9.580288625E-1,-3.032569520E0,8.329266719E0
1.008021767E1,8.542595542E0,5.452470708E0,-1.709854496E0,1.027759592E1
1.009017667E1,6.870723975E0,1.039433682E1,-1.723232925E0,1.257849822E1
1.010013567E1,5.876160539E0,1.302979737E1,-1.111491376E0,1.433667657E1
1.011009467E1,5.144199652E0,1.473419056E1,-9.293693197E-1,1.563402984E1
1.012005367E1,5.180375791E0,1.455632996E1,-7.483231509E-1,1.546877573E1
1.013001267E1,5.240779867E0,1.324662148E1,-4.283214104E-1,1.425209505E1
1.013997167E1,5.084182076E0,1.219071607E1,-2.357128660E-2,1.320844508E1
1.014993067E1,5.028124820E0,1.146190508E1,1.067771836E-1,1.251673714E1
1.015988967E1,4.998800449E0,1.100228235E1,-3.091305514E-2,1.208466709E1
1.016984767E1,4.753723468E0,9.734196112E0,-3.011538255E-1,1.083711928E1
1.017980667E1,4.173103140E0,7.307299315E0,-1.565634091E0,8.559358808E0
1.018976567E1,4.233649304E0,3.922773020E0,-8.147455326E0,9.984636342E0
1.019972813E1,3.557113881E0,2.191813000E0,-1.200036815E1,1.270692485E1
1.020968712E1,1.647464412E0,4.532331803E0,-7.348834426E0,8.789854265E0
1.021964612E1,1.003916057E0,7.904277229E0,-2.813167956E0,8.449814194E0
1.022960513E1,1.333586461E0,1.007263705E1,9.084444737E-1,1.020106569E1
1.023956412E1,1.778784690E0,1.077182254E1,4.972264030E0,1.199665142E1
1.024952313E1,1.136776198E0,1.130525349E1,5.050063573E0,1.243399207E1
1.025948212E1,1.224970922E0,1.143280583E1,4.353560786E0,1.229484015E1
1.026944112E1,1.262732240E0,1.123915774E1,4.457091587E0,1.215643142E1
1.027940013E1,1.141180321E0,1.105435064E1,4.247340267E0,1.189709460E1
1.028935912E1,1.174345436E0,1.095867148E1,3.549519517E0,1.157888840E1
1.029931712E1,1.337238632E0,1.079657497E1,3.079514476E0,1.130653119E1
1.030927612E1,1.471986547E0,1.019852877E1,2.698559021E0,1.065171133E1
1.031923513E1,1.879725758E0,9.346322231E0,2.221705720E0,9.788926625E0
1.032919412E1,2.513569197E0,8.522022699E0,1.223414100E0,8.968815030E0
1.033915313E1,3.488061480E0,7.721841761E0,-2.020545130E0,8.710683997E0
1.034911212E1,4.768448511E0,7.045623550E0,-7.220836537E0,1.115882578E1
1.035907112E1,4.803735873E0,7.356834587E0,-7.012941123E0,1.124189649E1
1.036903013E1,4.086875128E0,7.595608562E0,-3.007161030E0,9.134486039E0
1.037898912E1,3.202639588E0,7.275966425E0,-1.292574529E-1,7.950678917E0
1.038894813E1,2.302606334E0,6.685022253E0,1.062175959E0,7.149806726E0
1.039890712E1,1.258824254E0,4.775438565E0,1.187921501E0,5.079430035E0
1.040886612E1,-3.164255834E-1,4.738864231E-1,-5.930279736E-1,8.224206158E-1
1.041882513E1,-3.263272583E0,-7.510292423E0,-2.698560190E0,8.621813459E0
1.042878412E1,-7.269932098E0,-1.924710902E1,-9.641338234E0,2.272132306E1
1.043874212E1,-4.135478354E0,-2.797572496E1,-1.649564440E1,3.273911502E1
1.044870112E1,-1.931675053E0,-3.663850359E1,5.557548097E0,3.710791903E1
1.045866013E1,-1.045557822E1,-3.595312338E1,8.742769707E0,3.844973626E1
1.046861912E1,-1.322987739E1,-2.048386296E1,-2.356501729E0,2.449839583E1
1.047857812E1,-8.530969523E0,-1.668329675E1,-1.251635248E0,1.877968110E1
1.048853712E1,-5.382139814E0,-1.993091283E1,1.158966236E0,2.067732860E1
1.049849612E1,-6.211476138E0,-2.061160825E1,-8.459668283E-1,2.154382720E1
1.050845513E1,-7.332088001E0,-2.016606679E1,-2.935020422E0,2.165742619E1
1.051841412E1,-7.759815334E0,-1.944693879E1,-2.444847164E0,2.108021442E1
1.052837313E1,-7.551656796E0,-1.983277550E1,-1.680286295E0,2.128825654E1
1.053833212E1,-7.111028166E0,-1.915946745E1,-2.294599450E0,2.056494836E1
1.054829112E1,-7.181668963E0,-1.588721471E1,-3.562276973E0,1.779521783E1
1.055825013E1,-7.121060818E0,-1.021021852E1,-5.000238279E0,1.341493393E1
1.056820812E1,-5.779459872E0,-4.085035594E0,-5.576597157E0,9.010444387E0
1.057816713E1,-2.996235215E0,-9.666242695E-1,-4.714286045E0,5.668887091E0
1.058812612E1,4.000401825E-2,9.136046416E-1,-5.080314728E0,5.161963919E0
1.059808513E1,3.287644655E0,3.122230725E0,-6.384515714E0,7.830643204E0
1.060804412E1,6.893816968E0,3.863090490E0,-4.371147457E0,9.030786821E0
1.061800312E1,8.117383096E0,4.352619385E0,-1.513007981E0,9.334152184E0
1.062796212E1,7.377115654E0,7.316192345E0,1.741106694E0,1.053470257E1
1.063792112E1,6.358407896E0,1.091842042E1,3.532070841E0,1.311932848E1
1.064788013E1,5.795106436E0,1.275162661E1,3.170079076E0,1.436094151E1
1.065783912E1,5.806652348E0,1.282296264E1,2.262606994E0,1.425710253E1
1.066779812E1,5.708698037E0,1.276042082E1,1.526140827E0,1.406224301E1
1.067775712E1,5.448800411E0,1.318557889E1,9.928057623E-1,1.430155865E1
1.068771612E1,5.435923673E0,1.353951670E1,6.212561381E-1,1.460320984E1
1.069767513E1,5.498871288E0,1.328215735E1,-6.266228953E-2,1.437557706E1
1.070763412E1,4.415191024E0,1.111388465E1,-1.236227689E0,1.202250401E1
1.071759213E1,2.342759164E0,8.466646058E0,-2.282882799E0,9.076572583E0
1.072755112E1,9.136759776E-1,7.068399625E0,-2.364092438E0,7.509061866E0
1.073751013E1,1.573187524E-1,6.224606060E0,-1.882005880E0,6.504799453E0
1.074746912E1,-1.653534114E-2,5.785449759E0,-1.604487669E0,6.003839023E0
1.075742812E1,7.186798140E-1,6.553039486E0,-1.469274316E0,6.754079818E0
1.076738713E1,1.877171110E0,8.535204661E0,-1.364875789E0,8.845132894E0
1.077734612E1,2.193491151E0,9.529277515E0,-1.185769726E0,9.850105748E0
1.078730513E1,2.154128864E0,9.549464443E0,-8.209911776E-1,9.823775691E0
1.079726412E1,2.431745600E0,9.590801334E0,-2.585755340E-1,9.897662259E0
1.080722312E1,3.135494257E0,9.429793573E0,3.814841167E-1,9.944740379E0
1.081718212E1,3.851764726E0,9.304076682E0,7.833245838E-1,1.010027385E1
1.082714112E1,4.469711047E0,9.181268197E0,5.571227074E-1,1.022665088E1
1.083710013E1,4.945568567E0,9.058624603E0,-2.460366552E-1,1.032365547E1
1.084705912E1,4.712691801E0,8.882493019E0,-7.069995622E-1,1.008007910E1
1.085701812E1,3.966337700E0,8.664357961E0,-5.886286747E-1,9.547220399E0
1.086697612E1,4.034631133E0,8.255973802E0,-3.879358613E-1,9.197273836E0
1.087693513E1,4.434812818E0,7.806704741E0,-2.043682270E-1,8.980755537E0
1.088689412E1,4.608136861E0,7.516127944E0,-1.165749152E-1,8.817068351E0
1.089685312E1,4.465026843E0,7.385129263E0,2.931082030E-1,8.634958678E0
1.090681213E1,3.917765465E0,7.640755498E0,1.826879646E0,8.778810857E0
1.091677112E1,2.434981157E0,7.914332685E0,4.059104362E0,9.221828632E0
1.092673013E1,6.134626767E-1,7.093544991E0,4.752990812E0,8.560703163E0
1.093668912E1,-9.415420532E-1,4.749566390E0,5.036543641E0,6.986533774E0
1.094664812E1,-2.452003571E0,-1.501179063E-1,4.202118193E0,4.867510063E0
1.095660713E1,-4.134807093E0,-1.121187697E1,-7.890700579E0,1.432012467E1
1.096656612E1,-3.509357624E0,-2.705655903E1,-1.313681778E1,3.028116509E1
1.097652513E1,-9.250033207E0,-3.304107433E1,-5.304477096E-2,3.431149255E1
1.098648412E1,-1.694858492E1,-3.001790245E1,1.416908114E0,3.450125544E1
1.099644312E1,-1.566883173E1,-1.779196275E1,1.039399593E0,2.373070959E1
1.100640213E1,-1.061689705E1,-1.360357645E1,4.500757424E0,1.783346889E1
1.101636013E1,-6.086625804E0,-1.887149792E1,-3.094824533E0,2.006884118E1
1.102631912E1,-7.116853162E0,-2.417850102E1,-6.999803599E0,2.615811080E1
1.103627812E1,-7.992445055E0,-2.560161741E1,-3.187478635E0,2.700892468E1
1.104623713E1,-7.531725976E0,-2.409919874E1,2.691049442E-1,2.525016225E1
1.105619612E1,-6.573812889E0,-2.163167607E1,-6.542053445E-1,2.261796654E1
1.106615513E1,-5.840769682E0,-1.958362798E1,-1.256679934E0,2.047467508E1
1.107611412E1,-5.219611777E0,-1.717731397E1,-1.524324536E0,1.801743676E1
1.108607312E1,-4.847788503E0,-1.430142644E1,-1.900276090E0,1.521981934E1
1.109603213E1,-4.650265173E0,-9.406861963E0,-2.655935158E0,1.082441729E1
1.110599112E1,-4.088372599E0,-4.060752692E0,-3.406274428E0,6.693818672E0
1.111595013E1,-2.288138276E0,-1.262793928E0,-2.975018885E0,3.959919525E0
1.112590912E1,5.080449799E-1,7.362960130E-1,-2.518344326E0,2.672508122E0
1.113586812E1,4.039354221E0,2.921454881E0,-3.462392496E0,6.069550473E0
1.114582713E1,7.549279318E0,4.535988067E0,-3.190381193E0,9.367248162E0
1.115578612E1,9.593054266E0,5.778701488E0,-2.082540818E0,1.139109553E1
1.116574412E1,9.216797633E0,7.754976178E0,-9.019903171E-1,1.207901489E1
1.117570312E1,7.309695504E0,1.102898542E1,2.953393543E-1,1.323470412E1
1.118566213E1,6.131253508E0,1.281668507E1,7.298132050E-1,1.422646523E1
1.119562137E1,5.798682593E0,1.293783704E1,8.733074585E-1,1.420475318E1
1.120558037E1,5.368122869E0,1.314743282E1,9.857516813E-1,1.423528852E1
1.121553937E1,4.881318484E0,1.345079221E1,8.539004767E-1,1.433458152E1
1.122549837E1,4.509025679E0,1.320297552E1,6.617165315E-1,1.396738143E1
1.123545738E1,3.582110436E0,1.119852427E1,3.675641620E-1,1.176322933E1
1.124541637E1,2.006700093E0,8.366984360E0,-2.852166545E-1,8.608984904E0
1.125537537E1,8.745122042E-1,6.242904922E0,-1.836141490E0,6.565824322E0
1.126533437E1,2.635208532E-1,5.281952451E0,-3.029134866E0,6.094597852E0
1.127529337E1,5.103400120E-1,5.443178898E0,-2.569797485E0,6.040902462E0
1.128525238E1,1.518849641E0,6.392398930E0,-1.476447680E0,6.734208644E0
1.129521137E1,2.241691796E0,7.988838492E0,-2.086391064E-1,8.300015231E0
1.130517037E1,2.209413996E0,9.432129536E0,8.425346589E-1,9.724013700E0
1.131512937E1,2.081009140E0,1.011890957E1,1.350258919E0,1.041854736E1
1.132508738E1,2.176353254E0,1.019338790E1,1.765179681E0,1.057154339E1
1.133504637E1,2.509865279E0,1.006882115E1,2.005320150E0,1.056891158E1
1.134500537E1,2.717042947E0,1.017920138E1,2.001997762E0,1.072410641E1
1.135496438E1,2.948595025E0,1.016388869E1,1.751343999E0,1.072688453E1
1.136492337E1,3.378349881E0,1.001022270E1,1.176975514E0,1.063029058E1
1.137488238E1,3.818325084E0,9.802012119E0,1.974336485E-1,1.052131304E1
1.138484137E1,4.171070063E0,9.591272619E0,-8.111350378E-1,1.049038970E1
1.139480037E1,4.405252219E0,9.190360617E0,-1.442134903E0,1.029313987E1
1.140475938E1,4.510072915E0,8.673032890E0,-1.673192453E0,9.917753284E0
1.141471837E1,4.267970121E0,8.288072092E0,-1.726708218E0,9.480993050E0
1.142467738E1,4.021440984E0,8.101826579E0,-1.743650233E0,9.211508977E0
1.143463637E1,4.069793949E0,8.106150595E0,-1.800362085E0,9.247389031E0
1.144459537E1,4.154834976E0,8.314148335E0,-1.678205856E0,9.444791745E0
1.145455437E1,4.033953148E0,8.474843270E0,-5.349757934E-1,9.401167244E0
1.146451337E1,3.287880006E0,8.179951227E0,1.774476900E0,8.992804083E0
1.147447238E1,1.641094163E0,6.817337726E0,3.523688858E0,7.847653591E0
1.148443037E1,-4.116208854E-1,3.901462258E0,2.362166512E0,4.579374426E0
1.149438938E1,-2.373692397E0,-2.120655894E0,-2.064017863E0,3.793648211E0
1.150434837E1,-6.428299080E0,-1.606517238E1,-1.022405420E1,2.009836006E1
1.151430738E1,-8.139810677E0,-3.455180072E1,-2.064969234E1,4.106693615E1
1.152426637E1,-1.194347591E1,-4.000391300E1,-1.655490300E0,4.178157872E1
1.153422537E1,-1.893514838E1,-3.459295577E1,5.791408657E0,3.985916265E1
1.154418438E1,-1.375008195E1,-1.929786286E1,-2.253004989E0,2.380227501E1
1.155414337E1,-5.858629417E0,-1.883736422E1,-1.354949263E0,1.977386449E1
1.156410238E1,-1.849056820E0,-2.401353235E1,-2.316620064E-1,2.408573052E1
1.157406137E1,-4.842817785E0,-2.367847520E1,-3.687024980E0,2.444825608E1
1.158402037E1,-8.780368474E0,-2.260497552E1,-3.144082940E-1,2.425239455E1
1.159397938E1,-9.546817993E0,-2.014097288E1,2.545821562E0,2.243394147E1
1.160393837E1,-8.652570559E0,-1.664956767E1,1.150126269E0,1.879887952E1
1.161389738E1,-7.867917488E0,-1.472360476E1,-8.105278775E-2,1.669416761E1
1.162385637E1,-7.610756943E0,-1.233743558E1,-1.292500123E0,1.455357325E1
1.163381438E1,-7.146695012E0,-8.649200808E0,-2.937820069E0,1.159804772E1
1.164377337E1,-5.471320962E0,-4.116791822E0,-4.435092022E0,8.158024836E0
1.165373238E1,-2.693866338E0,-4.877846700E-1,-4.854892870E0,5.573583633E0
1.166369137E1,3.129523373E-1,2.252411204E0,-5.281158400E0,5.749950386E0
1.167365037E1,3.986875753E0,4.478159689E0,-5.078400350E0,7.857432315E0
1.168360938E1,6.505306910E0,6.362362953E0,-4.398764441E0,1.010681992E1
1.169356837E1,6.932276444E0,7.568533030E0,-4.342524751E0,1.114435598E1
1.170352738E1,6.797768850E0,8.856301585E0,-2.765751715E0,1.150187470E1
1.171348637E1,6.434146296E0,1.048612056E1,-1.174120318E0,1.235862134E1
1.172344537E1,6.266751037E0,1.077438128E1,7.441733088E-3,1.246432974E1
1.173340438E1,5.906868947E0,1.124591712E1,7.594913328E-1,1.272550902E1
1.174336337E1,5.357593787E0,1.225250594E1,4.839342785E-1,1.338140147E1
1.175332238E1,5.106221402E0,1.318577769E1,1.922470951E-1,1.414125840E1
1.176328137E1,5.069381604E0,1.298176600E1,-3.597616374E-1,1.394110134E1
1.177324037E1,3.962080635E0,1.053599731E1,-1.222690215E0,1.132255685E1
1.178319938E1,2.636534681E0,8.192939647E0,-1.700124729E0,8.773026803E0
1.179315737E1,2.018981000E0,7.066915017E0,-1.575375552E0,7.516606965E0
1.180311637E1,1.965288357E0,6.664304983E0,-1.108110516E0,7.035853051E0
1.181307537E1,2.122573780E0,6.729208492E0,-5.459088806E-1,7.077116849E0
1.182303438E1,2.438475746E0,7.532252811E0,-6.430296343E-2,7.917394220E0
1.183299337E1,2.609209765E0,8.603761511E0,2.790642142E-1,8.995029993E0
1.184295238E1,2.477212672E0,9.402663662E0,6.139202213E-1,9.742872502E0
1.185291137E1,2.189578486E0,9.736575344E0,8.746066368E-1,1.001798833E1
1.186287037E1,1.876161295E0,9.667738413E0,1.047095990E0,9.903613342E0
1.187282938E1,1.678038918E0,9.500757721E0,1.151397454E0,9.716271300E0
1.188278837E1,1.562740304E0,9.267583040E0,1.137172347E0,9.466964329E0
1.189274738E1,1.545449502E0,8.954741215E0,8.670708183E-1,9.128396146E0
1.190270637E1,1.688491401E0,8.698175917E0,5.168132452E-1,8.875604961E0
1.191266537E1,2.056421891E0,8.559622049E0,1.276798010E-2,8.803190538E0
1.192262438E1,2.489737993E0,8.487709483E0,-6.157281804E-1,8.866742848E0
1.193258337E1,2.640150891E0,8.491610745E0,-1.059073281E0,8.955416573E0
1.194254238E1,2.844872144E0,8.509194492E0,-1.084025981E0,9.037411175E0
1.195250137E1,3.300443041E0,8.241496680E0,-7.593368201E-1,8.910206743E0
1.196245938E1,3.846703376E0,7.821613387E0,-2.014026654E-1,8.718676842E0
1.197241837E1,4.483236827E0,7.870290288E0,3.365435135E-1,9.063892276E0
1.198237737E1,5.054819114E0,7.975868783E0,1.377021625E0,9.542634210E0
1.199233637E1,4.873797211E0,6.767945711E0,2.860458190E0,8.817097564E0
1.200229537E1,3.716227436E0,4.657342935E0,2.502307752E0,6.462409277E0
1.201225438E1,1.487254796E0,1.206576458E0,8.550292817E-1,2.097338468E0
1.202221337E1,-6.633666158E-2,-5.659921734E0,-9.308507118E-1,5.736340090E0
1.203217238E1,-4.747774803E0,-1.758624016E1,-1.277863723E1,2.225108488E1
1.204213137E1,-8.545170071E0,-2.377393450E1,-2.555566824E0,2.539194390E1
1.205209037E1,-1.389325336E1,-2.781897514E1,5.391556170E0,3.155925767E1
1.206204938E1,-1.656108643E1,-2.988581151E1,4.781839220E0,3.450068550E1
1.207200837E1,-1.005046324E1,-1.756795241E1,-2.218545300E0,2.036091124E1
1.208196738E1,-2.951313396E0,-1.716243046E1,-1.815962456E0,1.750876894E1
1.209192637E1,-4.270940799E0,-2.038797798E1,-1.507469206E0,2.088499569E1
1.210188537E1,-8.100778173E0,-2.188200239E1,-2.528538069E0,2.346994121E1
1.211184337E1,-1.129609325E1,-2.451555558E1,-2.537923143E0,2.711190222E1
1.212180237E1,-1.078048811E1,-2.428439877E1,-1.729189776E0,2.662594683E1
1.213176137E1,-6.289302578E0,-2.063604728E1,-1.791640378E0,2.164744210E1
1.214172037E1,-4.003344436E0,-1.781027272E1,-1.032849980E0,1.828385518E1
1.215167938E1,-3.323770800E0,-1.531677438E1,-3.580016255E-1,1.567734656E1
1.216163837E1,-2.512897937E0,-1.211247097E1,-7.618968773E-1,1.239383298E1
1.217159737E1,-2.154809773E0,-7.547057961E0,-2.006862645E0,8.101159589E0
1.218155637E1,-2.980170282E0,-2.671150782E0,-3.092692931E0,5.057787162E0
1.219151537E1,-2.977410981E0,1.032003157E0,-3.129743228E0,4.441317298E0
1.220147388E1,-1.053495183E0,3.525043073E0,-2.077778846E0,4.225274630E0
1.221143287E1,1.891822186E0,5.191008952E0,-1.737703614E0,5.791820005E0
1.222139188E1,4.845646668E0,5.949395746E0,-1.653718886E0,7.849228467E0
1.223135087E1,6.006706645E0,6.883217136E0,-2.062001889E0,9.365418018E0
1.224130987E1,5.509653554E0,9.954316299E0,-2.435698611E0,1.163517610E1
1.225126887E1,5.280438023E0,1.297695023E1,-1.601616687E0,1.410139848E1
1.226122688E1,5.044618061E0,1.342128716E1,-1.106383249E0,1.438065382E1
1.227118587E1,4.974908141E0,1.302901384E1,-8.711310518E-1,1.397368176E1
1.228114487E1,5.303101246E0,1.269555882E1,-6.724356472E-1,1.377505958E1
1.229110388E1,5.713124380E0,1.235142095E1,-9.944546771E-1,1.364501117E1
1.230106287E1,5.339284986E0,9.929457446E0,-2.446966195E0,1.153645235E1
1.231102188E1,4.668957552E0,6.917449075E0,-4.317001655E0,9.396103959E0
1.232098087E1,4.812294442E0,5.389832996E0,-5.428694175E0,9.037654451E0
1.233093987E1,4.631328088E0,4.919800472E0,-5.768170652E0,8.883998493E0
1.234089888E1,4.421127410E0,5.671145464E0,-4.819468099E0,8.656531130E0
1.235085787E1,3.995611493E0,6.806820924E0,-2.857951781E0,8.394379708E0
1.236081688E1,3.605322128E0,8.171376870E0,-5.312990642E-1,8.947179796E0
1.237077587E1,3.121134665E0,9.567564499E0,1.866151739E0,1.023534535E1
1.238073487E1,2.308739479E0,1.027308545E1,3.677610962E0,1.115308858E1
1.239069388E1,1.763353010E0,1.048931782E1,5.084799542E0,1.178941850E1
1.240065287E1,1.547748335E0,1.063306460E1,5.361582173E0,1.200850328E1
1.241061188E1,1.648887332E0,1.048397580E1,4.183929552E0,1.140779753E1
1.242056987E1,2.046585412E0,1.018501351E1,2.885980994E0,1.078201736E1
1.243052888E1,2.281337087E0,9.781134635E0,1.826573106E0,1.020840159E1
1.244048787E1,2.426010067E0,9.178096082E0,1.083435412E0,9.554936150E0
1.245044688E1,2.631675937E0,8.515329391E0,3.247286296E-1,8.918632269E0
1.246040587E1,2.774082243E0,8.100464762E0,-6.590467659E-1,8.587630890E0
1.247036487E1,2.521536321E0,8.091274694E0,-1.366025351E0,8.584456701E0
1.248032388E1,1.595513655E0,8.475289412E0,-1.113234943E0,8.695716559E0
1.249028287E1,9.808794889E-1,8.737231809E0,-3.674144733E-1,8.799791910E0
1.250024188E1,9.355998203E-1,8.724315895E0,3.875558654E-1,8.782894421E0
1.251020087E1,1.023298700E0,8.580163903E0,1.952712750E0,8.858862224E0
1.252015987E1,1.263016707E0,8.258023251E0,4.284346125E0,9.388598454E0
1.253011888E1,1.387743080E0,7.905305754E0,5.466223944E0,9.710782364E0
1.254007787E1,7.742026350E-1,7.566247353E0,4.724581822E0,8.953723366E0
1.255003688E1,-8.177047500E-1,5.967623271E0,3.068700635E0,6.760036402E0
1.255999587E1,-2.671419462E0,-8.790247929E-1,-5.459372177E0,6.141165288E0
1.256995388E1,-1.602491138E0,-1.101672030E1,-9.796535032E0,1.482930216E1
1.257991287E1,-1.874115939E0,-1.950851465E1,-3.792796433E-3,1.959832821E1
1.258987187E1,-7.788048030E0,-3.006481115E1,8.992617139E-1,3.107016629E1
1.259983087E1,-1.385482897E1,-4.080591242E1,-5.233611181E0,4.341047639E1
1.260978987E1,-1.122601788E1,-3.247702150E1,-6.270216097E0,3.492987278E1
1.261974888E1,-8.520718185E0,-2.350281549E1,-8.424260176E0,2.638092367E1
1.262970787E1,-6.272836234E0,-2.211262827E1,-5.096884568E0,2.354347119E1
1.263966688E1,-7.406703150E0,-2.245437230E1,-1.909944900E0,2.372142442E1
1.264962587E1,-7.309493190E0,-2.461887354E1,-9.676649277E-1,2.569929961E1
1.265958487E1,-5.828360721E0,-2.363470528E1,-2.348783404E0,2.445579412E1
1.266954388E1,-5.302720592E0,-2.012432235E1,-1.346249045E0,2.085472566E1
1.267950287E1,-5.579138356E0,-1.714411231E1,3.818418932E-1,1.803311329E1
1.268946188E1,-7.031829969E0,-1.317841955E1,2.821633116E-1,1.493977881E1
1.269942087E1,-9.013715063E0,-8.385436419E0,-1.514834505E0,1.240392384E1
1.270937888E1,-8.868655583E0,-3.993674018E0,-3.793008102E0,1.043979858E1
1.271933787E1,-6.403586408E0,-1.819571650E-1,-5.517747270E0,8.454854359E0
1.272929687E1,-2.376422170E0,2.239387701E0,-5.145686599E0,6.094286683E0
1.273925587E1,1.879460295E0,2.498505893E0,-3.062573923E0,4.376558206E0
1.274921487E1,6.444392372E0,2.443758413E0,-3.576963643E-1,6.901455999E0
1.275917388E1,9.152540826E0,4.529774816E0,-2.829139662E-1,1.021606107E1
1.276913287E1,9.998979671E0,8.140191330E0,-5.751741950E-1,1.290632150E1
1.277909187E1,9.799917061E0,1.060129785E1,-5.691089513E-2,1.443707482E1
1.278905087E1,8.616547033E0,1.208522412E1,2.113815236E-1,1.484392828E1
1.279900987E1,7.507989789E0,1.214653802E1,8.263286987E-2,1.427988532E1
1.280896888E1,6.409904324E0,1.160547878E1,-1.156871617E-1,1.325848388E1
1.281892787E1,5.687018901E0,1.140708509E1,-1.467697906E-1,1.274697281E1
1.282888688E1,5.306400245E0,1.137330222E1,-1.001580898E-1,1.255069395E1
1.283884587E1,4.990359993E0,1.106907627E1,-1.822541670E-1,1.214336687E1
1.284880388E1,4.397820116E0,1.017194031E1,-3.433251143E-1,1.108724779E1
1.285876287E1,3.397931913E0,8.816252251E0,-4.450433143E-1,9.458874595E0
1.286872187E1,2.663176057E0,7.340550091E0,-1.000243421E0,7.872526231E0
1.287868088E1,2.492598158E0,5.988653367E0,-2.854735812E0,7.087067891E0
1.288863987E1,2.626886775E0,5.881052320E0,-4.336799158E0,7.764994363E0
1.289859888E1,2.491782472E0,7.437990432E0,-3.540761558E0,8.606374031E0
1.290855787E1,1.640476112E0,9.472687578E0,-1.443987447E0,9.721526195E0
1.291851687E1,8.981872880E-1,1.048989903E1,7.718874300E-1,1.055653979E1
1.292847588E1,7.557035065E-1,1.073855188E1,2.192710547E0,1.098615328E1
1.293843487E1,9.066830000E-1,1.079723454E1,2.795673087E0,1.119009096E1
1.294839388E1,1.088587540E0,1.057179631E1,3.026994785E0,1.105036639E1
1.295835287E1,1.253530185E0,1.013493913E1,2.759786385E0,1.057850415E1
1.296831187E1,1.432081347E0,9.655476801E0,1.834890186E0,9.932064802E0
1.297827087E1,1.926782688E0,8.940141887E0,5.360072422E-1,9.161109772E0
1.298822888E1,2.811874259E0,7.919926717E0,-9.325899661E-1,8.455861878E0
1.299818787E1,3.629490424E0,6.957971449E0,-2.409975539E0,8.209418343E0
1.300814687E1,4.144836822E0,6.415452163E0,-3.141825914E0,8.258860019E0
1.301810588E1,4.224451926E0,6.605941000E0,-2.562549276E0,8.249309629E0
1.302806487E1,3.962912402E0,7.233623813E0,-1.141178933E0,8.326600598E0
1.303802388E1,3.828195477E0,7.739303302E0,1.997349664E-1,8.636653881E0
1.304798287E1,3.903447680E0,7.867740317E0,9.139221454E-1,8.830260199E0
1.305794187E1,3.731828392E0,7.580562506E0,2.183673237E0,8.726963955E0
1.306790088E1,3.045934501E0,7.009162068E0,5.187974832E0,9.236944989E0
1.307785987E1,1.873089168E0,6.378547461E0,6.778343815E0,9.494223276E0
1.308781888E1,2.416230306E-1,3.133538071E0,4.372773567E0,5.385034002E0
1.309777787E1,-2.519301808E0,-6.743084520E0,-1.264825017E1,1.455315440E1
1.310773687E1,-5.052322937E0,-2.010924589E1,-1.034215627E1,2.317041073E1
1.311769588E1,-3.277726023E0,-3.092484302E1,-8.192252015E0,3.215901735E1
1.312765387E1,-1.082681677E1,-3.154829186E1,-4.779198325E0,3.369503550E1
1.313761287E1,-2.246544225E1,-2.546542874E1,2.300191434E0,3.403637814E1
1.314757187E1,-1.402681429E1,-1.532859979E1,6.873049997E0,2.188507042E1
1.315753088E1,-5.838129079E-1,-1.548993032E1,-3.925895726E0,1.599035447E1
1.316748987E1,-1.367895876E0,-1.762717769E1,-9.418983825E0,2.003261812E1
1.317744888E1,-5.677530039E0,-1.919055475E1,-4.493008693E0,2.051094504E1
1.318740787E1,-8.193821408E0,-2.193491735E1,-1.118738415E0,2.344207508E1
1.319736362E1,-9.915309523E0,-2.349252673E1,-1.549025660E0,2.554626500E1
1.320732263E1,-8.516594728E0,-2.237702299E1,-2.614885365E0,2.408528948E1
1.321728162E1,-7.460703356E0,-2.056977727E1,-3.023808053E0,2.208893947E1
1.322724062E1,-7.161330593E0,-1.825855068E1,-3.173737679E0,1.986786198E1
1.323719963E1,-7.228886983E0,-1.371059336E1,-3.782983636E0,1.595456494E1
1.324715862E1,-8.271385893E0,-7.306187759E0,-4.722786727E0,1.200420421E1
1.325711662E1,-8.246474415E0,-1.626815262E0,-6.011522412E0,1.033388939E1
1.326707562E1,-5.904265766E0,1.696901159E0,-7.045000237E0,9.347291379E0
1.327703463E1,-1.090962971E0,3.291750863E0,-5.473959811E0,6.479973762E0
1.328699362E1,4.777838555E0,3.430084875E0,-2.373704091E0,6.342530616E0
1.329695263E1,9.182107272E0,2.225917470E0,3.859197414E-1,9.455936579E0
1.330691162E1,1.039719845E1,2.990502312E0,1.560423052E0,1.093067975E1
1.331687062E1,8.859121113E0,8.074198485E0,1.997691872E0,1.215185092E1
1.332682963E1,7.010596974E0,1.158841310E1,7.735644114E-1,1.356606759E1
1.333678862E1,6.706415461E0,1.194725322E1,2.142501676E-1,1.370250966E1
1.334674763E1,6.518475425E0,1.222842009E1,2.706558816E-1,1.385994352E1
1.335670662E1,6.135850589E0,1.244915014E1,1.920915592E-1,1.388045031E1
1.336666562E1,5.896611761E0,1.255807441E1,-1.743381699E-1,1.387464079E1
1.337662362E1,5.866229628E0,1.215119123E1,-7.531856954E-1,1.351411807E1
1.338658262E1,5.042690819E0,1.081670109E1,-1.251937988E0,1.199987924E1
1.339654162E1,3.263358245E0,9.136035891E0,-1.481314902E0,9.813814379E0
1.340650062E1,2.023821909E0,8.134407265E0,-1.177114677E0,8.464634406E0
1.341645963E1,1.679356003E0,7.745775585E0,-1.739756425E-1,7.927644260E0
1.342641862E1,1.805966349E0,7.688138995E0,8.081308115E-1,7.938644158E0
1.343637762E1,2.328682285E0,8.096776924E0,1.400311085E0,8.540575441E0
1.344633662E1,2.691958976E0,8.770078543E0,1.719141043E0,9.333614879E0
1.345629562E1,2.369522747E0,9.294829311E0,1.645414671E0,9.732208352E0
1.346625463E1,2.011054514E0,9.586838676E0,1.424015697E0,9.898466384E0
1.347621362E1,1.929546082E0,9.730695384E0,1.264400743E0,1.000041449E1
1.348617263E1,2.102588874E0,9.722874148E0,1.052551442E0,1.000315081E1
1.349613162E1,2.659517747E0,9.657773003E0,7.355398218E-1,1.004423381E1
1.350608963E1,3.416645635E0,9.510028481E0,2.786338592E-1,1.010899332E1
1.351604862E1,4.056907855E0,9.315476999E0,-4.078350326E-1,1.016872374E1
1.352600762E1,4.315091077E0,9.113616496E0,-1.015232319E0,1.013453074E1
1.353596663E1,4.190779565E0,8.903217305E0,-1.085400077E0,9.899899245E0
1.354592562E1,4.269134594E0,8.627142187E0,-7.990935011E-1,9.658759906E0
1.355588463E1,4.369382767E0,8.231830648E0,-5.203238404E-1,9.334092269E0
1.356584362E1,4.299941526E0,7.836901517E0,-2.850973713E-1,8.943590052E0
1.357580262E1,4.172854341E0,7.627870574E0,-9.111102194E-2,8.695137955E0
1.358576162E1,3.830490509E0,7.771300435E0,3.343193789E-1,8.670498108E0
1.359572062E1,3.251854725E0,7.885204196E0,1.458292222E0,8.653185574E0
1.360567963E1,2.712787928E0,8.018409616E0,3.258052189E0,9.070226854E0
1.361563862E1,2.399662805E0,7.930683255E0,4.869375254E0,9.610667710E0
1.362559762E1,2.333697734E0,7.469171879E0,5.318653085E0,9.461645962E0
1.363555562E1,2.012482112E0,6.452311256E0,4.930917783E0,8.366382431E0
1.364551463E1,9.677109745E-1,3.080938273E0,3.727581267E0,4.931886787E0
1.365547362E1,-9.543319604E-1,-4.581603366E0,-7.468129320E0,8.813330496E0
1.366543262E1,-7.838949212E0,-1.490194952E1,-6.569287144E0,1.807409079E1
1.367539163E1,-1.241426565E1,-2.580983208E1,-2.656983563E-1,2.864143885E1
1.368535062E1,-1.802151508E1,-3.389028884E1,-1.041247020E1,3.977117322E1
1.369530963E1,-1.635686775E1,-3.278746187E1,-2.824780526E0,3.674975052E1
1.370526862E1,-8.434158343E0,-2.398820689E1,3.323182863E0,2.564395916E1
1.371522762E1,-6.230270843E0,-2.209495097E1,-1.412799568E0,2.299998121E1
1.372518663E1,-4.558691344E0,-2.270657207E1,-3.987058479E0,2.350035568E1
1.373514562E1,-7.519743862E0,-2.408969818E1,-5.333825440E0,2.579359998E1
1.374510362E1,-9.593060113E0,-2.426857387E1,-2.034196917E0,2.617495820E1
1.375506262E1,-9.303855658E0,-2.295544360E1,-2.244311933E-1,2.477023395E1
1.376502163E1,-8.356197417E0,-2.100610352E1,-5.260808627E-1,2.261325234E1
1.377498062E1,-8.432780154E0,-1.873861995E1,-5.272469437E-1,2.055542868E1
1.378493963E1,-9.664252303E0,-1.523024495E1,-9.176922838E-1,1.806101583E1
1.379489862E1,-1.055979314E1,-1.015315671E1,-2.167438881E0,1.480856555E1
1.380485762E1,-1.010792148E1,-3.680885988E0,-4.176249819E0,1.153950003E1
1.381481663E1,-8.943398201E0,8.731237829E-1,-6.578489492E0,1.113657221E1
1.382477562E1,-5.160967712E0,3.525330171E0,-7.418854834E0,9.700667379E0
1.383473463E1,5.501010785E-1,4.074346299E0,-5.426034862E0,6.807698824E0
1.384469362E1,5.931109164E0,4.168444371E0,-3.992146726E0,8.275942234E0
1.385465262E1,1.065433326E1,3.383436373E0,-2.193398180E0,1.139181524E1
1.386461062E1,1.118907283E1,5.781898161E0,-1.781319165E-1,1.259592903E1
1.387456962E1,8.521087729E0,9.946814321E0,8.736804378E-1,1.312674250E1
1.388452862E1,6.933469276E0,1.164021943E1,9.258212292E-1,1.358031110E1
1.389448762E1,6.294056364E0,1.224088401E1,3.193737495E-1,1.376794780E1
1.390444663E1,5.555966426E0,1.242812355E1,6.323295951E-2,1.361363347E1
1.391440562E1,5.214575570E0,1.229884980E1,1.825302652E-1,1.335989604E1
1.392436462E1,5.211913333E0,1.197781076E1,2.747805440E-1,1.306550786E1
1.393432362E1,5.233445120E0,1.124204977E1,2.797716542E-1,1.240366490E1
1.394428262E1,4.404229249E0,9.827002534E0,1.095768213E-3,1.076880751E1
1.395424163E1,3.001369070E0,8.203072287E0,-6.561160684E-1,8.759514801E0
1.396419962E1,2.038351656E0,7.154005201E0,-1.035617833E0,7.510470836E0
1.397415863E1,1.593911226E0,6.932614413E0,-7.123276913E-1,7.149063319E0
1.398411762E1,1.712184319E0,7.559786764E0,-1.383451223E-2,7.751267152E0
1.399407663E1,2.019808088E0,8.466157815E0,8.763350737E-1,8.747766345E0
1.400403562E1,2.090488646E0,9.322290759E0,1.531259626E0,9.675743063E0
1.401399462E1,1.936687579E0,9.998776188E0,1.982348778E0,1.037574049E1
1.402395363E1,1.846949191E0,1.041205505E1,2.368190167E0,1.083653249E1
1.403391262E1,1.838321916E0,1.054592471E1,2.549198914E0,1.100428874E1
1.404387163E1,2.060057105E0,1.027914433E1,2.262046831E0,1.072480766E1
1.405383062E1,2.721759018E0,9.714016201E0,1.465750784E0,1.019404278E1
1.406378962E1,3.564518795E0,9.170599952E0,6.092974126E-1,9.857836530E0
1.407374863E1,4.341613755E0,8.745598006E0,-4.967209697E-2,9.764095544E0
1.408370663E1,5.029624631E0,8.427796572E0,-5.183333020E-1,9.828201687E0
1.409366562E1,5.656465445E0,8.107924055E0,-6.916671395E-1,9.910218829E0
1.410362462E1,5.800079493E0,7.975450122E0,-4.592436064E-1,9.872164477E0
1.411358363E1,5.678407706E0,7.888907822E0,-3.467654698E-1,9.726223676E0
1.412354262E1,5.549622197E0,7.948118482E0,-5.243933563E-1,9.708031846E0
1.413350163E1,5.314158915E0,7.847983745E0,-7.820593925E-1,9.510139364E0
1.414346062E1,5.014240022E0,7.692828462E0,-8.927049387E-1,9.226003189E0
1.415341962E1,4.612754408E0,7.875727614E0,-3.129546762E-2,9.127188399E0
1.416337863E1,4.049717242E0,8.132635558E0,1.845598923E0,9.270717677E0
1.417333762E1,3.112935114E0,7.961061294E0,2.108648344E0,8.804275086E0
1.418329663E1,1.183306294E0,6.416330414E0,-9.759382993E-2,6.525261246E0
1.419325462E1,-1.034720943E0,2.214213098E0,3.250446716E-1,2.465571154E0
1.420321304E1,-2.862257963E0,-5.754221535E0,-6.575723759E0,9.194766396E0
1.421317204E1,-5.953040900E0,-1.777740552E1,-1.052520452E1,2.150011101E1
1.422313104E1,-8.671911979E0,-2.584204790E1,4.668144204E0,2.765510925E1
1.423309004E1,-1.817319770E1,-2.886009060E1,1.087698179E0,3.412261760E1
1.424304904E1,-2.077863981E1,-2.842527527E1,-3.791186987E0,3.541357431E1
1.425300804E1,-1.030515859E1,-2.225288426E1,1.422047524E0,2.456439234E1
1.426296704E1,-6.036121064E0,-2.041850045E1,-8.449568680E-1,2.130877449E1
1.427292604E1,-7.181121663E0,-2.077275284E1,-5.097413156E0,2.256234451E1
1.428288504E1,-1.093117320E1,-2.167663414E1,-6.582314740E0,2.515340698E1
1.429284404E1,-1.135989923E1,-2.077824688E1,-2.873703010E0,2.385458076E1
1.430280204E1,-9.777673668E0,-1.923998945E1,4.934333727E-1,2.158757914E1
1.431276104E1,-8.425041364E0,-1.872242901E1,1.184683313E0,2.056487648E1
1.432272004E1,-7.483909201E0,-1.826586438E1,1.655099706E-1,1.974026575E1
1.433267904E1,-6.903532117E0,-1.674275124E1,-1.132008086E0,1.814552058E1
1.434263804E1,-6.335358757E0,-1.375043395E1,-2.426665832E0,1.533296812E1
1.435259704E1,-5.181887881E0,-8.321936826E0,-3.423761111E0,1.038406157E1
1.436255604E1,-3.680445985E0,-2.791533258E0,-3.575960627E0,5.841732190E0
1.437251504E1,-1.306391353E0,6.905620158E-1,-3.480427648E0,3.781125610E0
1.438247404E1,1.216305933E0,2.479034665E0,-4.035072305E0,4.889460246E0
1.439243304E1,3.940264381E0,4.099650124E0,-4.935700221E0,7.529538579E0
1.440239104E1,6.985655091E0,6.033581618E0,-5.393531359E0,1.069082152E1
1.441235004E1,9.740484792E0,6.499453847E0,-3.759116471E0,1.229841050E1
1.442230904E1,1.035637552E1,7.155528401E0,-1.807949724E0,1.271710592E1
1.443226804E1,9.459890361E0,9.186945258E0,3.173085129E-1,1.319053348E1
1.444222704E1,7.859665312E0,1.073221233E1,9.310135567E-1,1.333497306E1
1.445218604E1,6.652293633E0,1.068347929E1,6.027028863E-1,1.259972187E1
1.446214504E1,6.250734928E0,1.039291127E1,7.972174951E-1,1.215400541E1
1.447210404E1,5.894614352E0,1.054291691E1,9.293494391E-1,1.211458896E1
1.448206304E1,5.451094859E0,1.062216422E1,5.921323629E-1,1.195388759E1
1.449202204E1,4.719420193E0,9.685750760E0,1.122895639E-2,1.077435942E1
1.450198004E1,3.137643693E0,7.717949855E0,-8.999239111E-1,8.379822251E0
1.451193904E1,1.537080675E0,6.330089246E0,-1.667829387E0,6.724158068E0
1.452189804E1,6.171051997E-1,6.226371335E0,-1.962913803E0,6.557556666E0
1.453185704E1,8.633048460E-1,6.743627726E0,-2.111392150E0,7.118973730E0
1.454181604E1,1.841830246E0,7.777420131E0,-2.012765994E0,8.242076771E0
1.455177504E1,2.638729433E0,9.486861228E0,-1.305842299E0,9.933209607E0
1.456173404E1,2.636587598E0,1.070940936E1,-1.349724483E-1,1.103001634E1
1.457169304E1,2.591359677E0,1.127684889E1,9.917123330E-1,1.161318041E1
1.458165204E1,2.584999661E0,1.153498943E1,1.882066691E0,1.196997825E1
1.459161104E1,2.409523842E0,1.131079549E1,1.986370493E0,1.173394935E1
1.460156904E1,2.255756104E0,1.077873862E1,1.514101410E0,1.111585107E1
1.461152804E1,2.273002466E0,1.016996395E1,9.874707627E-1,1.046755967E1
1.462148704E1,2.528931879E0,9.491687520E0,4.288851551E-1,9.832170203E0
1.463144604E1,2.924351300E0,8.829662840E0,-9.673984408E-2,9.301835034E0
1.464140504E1,3.253764718E0,8.407560529E0,-3.874200638E-1,9.023533299E0
1.465136404E1,3.627605574E0,8.243994026E0,-3.232470182E-1,9.012627161E0
1.466132304E1,4.190188119E0,8.060603124E0,-6.569251768E-2,9.084894865E0
1.467128204E1,4.715691131E0,7.729078860E0,8.380346417E-2,9.054469940E0
1.468124104E1,5.255271022E0,7.365503084E0,2.369243543E-1,9.051223251E0
1.469120004E1,5.903224377E0,7.039012688E0,7.623284018E-1,9.218291722E0
1.470115804E1,6.164059896E0,7.069568483E0,1.326702826E0,9.472833438E0
1.471111704E1,5.411970554E0,7.196760042E0,1.869950091E0,9.196711027E0
1.472107604E1,4.012772194E0,6.929514804E0,2.629499896E0,8.428213678E0
1.473103504E1,2.627209249E0,6.000258921E0,2.359529125E0,6.962234788E0
1.474099404E1,8.102439952E-1,2.984502484E0,-3.727567819E-1,3.114915413E0
1.475095304E1,-1.933182758E0,-2.932204403E0,-3.066627213E0,4.662533721E0
1.476091204E1,-8.524173304E0,-1.364355036E1,-2.995582081E0,1.636403095E1
1.477087104E1,-1.258314844E1,-2.807037267E1,-1.757435862E1,3.542794840E1
1.478083004E1,-1.883087615E1,-2.969083260E1,-1.133881417E1,3.694206469E1
1.479078804E1,-1.951922090E1,-2.761085169E1,5.037520126E0,3.418677704E1
1.480074704E1,-1.175897287E1,-2.413630517E1,9.213430806E0,2.838524225E1
1.481070604E1,-8.952671885E0,-2.296180069E1,-3.401724418E0,2.487903442E1
1.482066504E1,-2.948875692E0,-2.521197767E1,-8.599916382E0,2.680108669E1
1.483062404E1,-3.885964505E0,-2.272587489E1,-4.063997312E0,2.341115512E1
1.484058304E1,-8.175447117E0,-1.878596953E1,-1.032060460E0,2.051379379E1
1.485054204E1,-9.908166565E0,-1.704457983E1,3.983744569E-1,1.971923347E1
1.486050104E1,-9.581031221E0,-1.612717976E1,1.349274248E-2,1.875852522E1
1.487046004E1,-8.647891032E0,-1.546400260E1,-8.073624142E-1,1.773621238E1
1.488041804E1,-7.976115535E0,-1.502527197E1,-1.318199805E0,1.706208861E1
1.489037704E1,-6.593265406E0,-1.321606861E1,-2.102130160E0,1.491826295E1
1.490033604E1,-4.599367792E0,-9.174052733E0,-3.739095604E0,1.092237445E1
1.491029504E1,-2.610786759E0,-3.920684980E0,-5.558512888E0,7.285948376E0
1.492025404E1,-4.409399942E-1,-1.848690784E-1,-6.374542118E0,6.392448034E0
1.493021304E1,1.590562525E0,2.241714308E0,-6.532858990E0,7.087553793E0
1.494017204E1,4.213752106E0,4.628405065E0,-5.642369562E0,8.426990835E0
1.495013104E1,6.779475836E0,5.738911185E0,-4.272563986E0,9.856530688E0
1.496009004E1,8.091511506E0,6.188531663E0,-3.870835712E0,1.089742409E1
1.497004804E1,7.293872938E0,7.412346883E0,-2.212445485E0,1.063195108E1
1.498000704E1,6.059712825E0,9.151910496E0,-8.793007815E-1,1.101139206E1
1.498996604E1,5.510946958E0,1.024366927E1,3.991584224E-1,1.163884118E1
1.499992504E1,4.950419417E0,1.118232280E1,1.054083413E0,1.227444856E1
1.500988404E1,4.457142750E0,1.190573565E1,1.267330198E0,1.277571088E1
1.501984304E1,4.248653259E0,1.220271339E1,1.017157077E0,1.296116805E1
1.502980204E1,4.071605709E0,1.181391097E1,6.474177504E-1,1.251261824E1
1.503976104E1,3.551048857E0,1.026333931E1,3.564334023E-1,1.086614589E1
1.504972004E1,2.915570244E0,8.928658540E0,1.657381582E-1,9.394091883E0
1.505967904E1,2.670450870E0,8.124845313E0,2.418198260E-1,8.555869099E0
1.506963704E1,2.902877400E0,7.261538420E0,6.296270120E-1,7.845576308E0
1.507959604E1,3.407941470E0,6.941769399E0,7.603391790E-1,7.770478950E0
1.508955504E1,3.939574994E0,7.467601901E0,2.517686807E-2,8.443101514E0
1.509951404E1,4.386298177E0,8.535671269E0,-6.134547830E-1,9.616320632E0
1.510947304E1,4.373929562E0,9.382371485E0,-7.459317128E-1,1.037865929E1
1.511943204E1,4.046988054E0,9.829931989E0,-3.850964169E-1,1.063738570E1
1.512939104E1,3.858719112E0,9.975823528E0,1.132417830E-1,1.069670940E1
1.513935004E1,3.821069767E0,9.948215314E0,4.865270070E-1,1.066790845E1
1.514930904E1,3.921914941E0,9.642457391E0,6.117790440E-1,1.042749610E1
1.515926704E1,4.014534837E0,9.066483260E0,4.101986233E-1,9.924004816E0
1.516922604E1,3.913863325E0,8.402294526E0,-1.148385845E-2,9.269142965E0
1.517918504E1,3.558700231E0,7.925436548E0,-3.629787755E-1,8.695323191E0
1.518914404E1,3.045713477E0,7.605664018E0,-5.439687379E-1,8.210870705E0
1.519910375E1,2.759189969E0,7.378282174E0,-6.384176429E-1,7.903148373E0
1.520906275E1,2.851270167E0,7.180341060E0,-6.824682999E-1,7.755823766E0
1.521902175E1,3.208732679E0,7.018794186E0,-7.097467303E-1,7.750043720E0
1.522898075E1,3.797140329E0,6.977973604E0,-6.063036382E-1,7.967307852E0
1.523893975E1,4.487350051E0,7.137075173E0,-4.162023251E-1,8.440816126E0
1.524889775E1,4.952170658E0,7.437162466E0,1.328067859E-1,8.936051556E0
1.525885675E1,5.072228029E0,7.635187195E0,1.515059184E0,9.290801096E0
1.526881575E1,4.814210575E0,7.095286292E0,2.098703984E0,8.827472426E0
1.527877475E1,4.261721786E0,5.150015877E0,2.053492436E-1,6.687832566E0
1.528873375E1,2.076665536E0,9.322765553E-1,-3.459812120E-1,2.302473089E0
1.529869275E1,-2.466355562E-1,-3.649598706E0,3.006073155E0,4.734646305E0
1.530865175E1,-5.753754342E0,-1.048144279E1,-2.385487985E0,1.219249297E1
1.531861075E1,-1.516779669E1,-2.357054963E1,-1.550434371E1,3.203150855E1
1.532856975E1,-1.526262917E1,-3.323254959E1,-8.643482816E-1,3.658001229E1
1.533852775E1,-1.219918284E1,-2.433372588E1,5.216137362E0,2.771567005E1
1.534848675E1,-1.140982861E1,-9.820867635E0,-1.331320665E0,1.511310837E1
1.535844575E1,-1.047708778E1,-1.151206133E1,3.000155481E0,1.585237702E1
1.536840475E1,-8.987765704E0,-1.727476834E1,-2.899490985E-1,1.947515402E1
1.537836375E1,-1.156803789E1,-1.974378088E1,-9.303865013E0,2.470219197E1
1.538832275E1,-1.206281992E1,-2.196675661E1,-9.061494416E0,2.664884053E1
1.539828175E1,-1.080008096E1,-2.128194709E1,-4.172491521E0,2.422751960E1
1.540824075E1,-1.006996487E1,-2.021585232E1,-2.338872520E0,2.270584071E1
1.541819875E1,-9.585924171E0,-1.953907687E1,-1.248573208E0,2.179964225E1
1.542815775E1,-8.040757089E0,-1.875810170E1,-8.520577267E-1,2.042660413E1
1.543811675E1,-6.018974104E0,-1.698243329E1,-1.070578116E0,1.804929991E1
1.544807575E1,-4.934889797E0,-1.324308742E1,-2.122892454E0,1.429122717E1
1.545803475E1,-4.368368860E0,-7.835247924E0,-3.751083566E0,9.723393669E0
1.546799375E1,-3.221520832E0,-3.471799496E0,-4.226984940E0,6.348148541E0
1.547795275E1,-1.702329714E0,-3.929247057E-1,-3.681049125E0,4.074609054E0
1.548791175E1,4.790781659E-1,2.076549761E0,-3.159579231E0,3.811104264E0
1.549786975E1,3.694360604E0,3.891955855E0,-2.417367589E0,5.885514991E0
1.550782875E1,7.196251919E0,5.193591083E0,-1.889401438E0,9.073547697E0
1.551778775E1,9.994145193E0,6.340432971E0,-1.361087962E0,1.191371432E1
1.552774675E1,1.129669434E1,7.836171784E0,-8.842077649E-1,1.377689060E1
1.553770575E1,1.064257217E1,9.455585641E0,-7.705508295E-1,1.425714526E1
1.554766475E1,9.565966455E0,1.071157516E1,-8.067928223E-1,1.438389625E1
1.555762375E1,8.542235938E0,1.069294009E1,-5.918644508E-1,1.369887098E1
1.556758275E1,7.432560707E0,1.049158888E1,4.065221865E-2,1.285760664E1
1.557754075E1,6.336260397E0,1.064291833E1,4.422962924E-1,1.239417332E1
1.558749975E1,5.101858209E0,1.074941367E1,4.730269190E-1,1.190808993E1
1.559745875E1,3.790851649E0,1.007292005E1,3.433146258E-1,1.076810752E1
1.560741775E1,2.285003876E0,8.361748179E0,9.178725243E-2,8.668823462E0
1.561737675E1,8.506725213E-1,6.596797124E0,-4.737520102E-1,6.668269416E0
1.562733575E1,-2.419876045E-1,5.197034508E0,-2.096739028E0,5.609281614E0
1.563729475E1,-3.113873300E-1,5.130213697E0,-3.633583767E0,6.294361416E0
1.564725375E1,6.174434611E-1,6.170162051E0,-3.689705343E0,7.215681650E0
1.565721275E1,1.827402826E0,8.016072484E0,-2.738482640E0,8.665800962E0
1.566717075E1,2.599596942E0,1.000097240E1,-1.349808683E0,1.042110055E1
1.567712975E1,2.911966605E0,1.124612294E1,2.285489488E-1,1.161925408E1
1.568708875E1,3.216448958E0,1.176696368E1,1.721471744E0,1.231951472E1
1.569704775E1,3.602548209E0,1.179721951E1,2.854298440E0,1.266095420E1
1.570700675E1,3.808166424E0,1.148462385E1,3.309657376E0,1.254402441E1
1.571696575E1,3.892996367E0,1.072584588E1,3.138160880E0,1.183415583E1
1.572692475E1,4.245977865E0,9.637096079E0,2.714962800E0,1.087533778E1
1.573688375E1,4.817744924E0,8.591120415E0,2.354899592E0,1.012736729E1
1.574684175E1,5.218472155E0,7.786462850E0,1.818760056E0,9.548263899E0
1.575680075E1,5.263957061E0,7.107615146E0,8.434094755E-1,8.884749661E0
1.576675975E1,5.454535360E0,6.447950402E0,-2.240606260E-1,8.448563402E0
1.577671875E1,5.577657257E0,6.130434898E0,-1.072516176E0,8.357199499E0
1.578667775E1,5.463918972E0,6.390607928E0,-1.581925603E0,8.555511021E0
1.579663675E1,4.957657685E0,6.961335352E0,-1.511369591E0,8.678870759E0
1.580659575E1,4.472776158E0,7.247365939E0,-1.100825909E0,8.587307919E0
1.581655475E1,3.972593052E0,7.357556718E0,-6.234453356E-1,8.384737354E0
1.582651275E1,3.195205731E0,7.090067067E0,9.777550292E-1,7.838009669E0
1.583647175E1,2.260306992E0,6.333112841E0,2.023984462E0,7.022379871E0
1.584643075E1,8.583332509E-1,4.742387179E0,4.704470909E-1,4.842343708E0
1.585638975E1,-2.104961675E0,8.721127993E-1,-3.276546055E0,3.990889430E0
1.586634875E1,-6.364211842E0,-6.317255192E0,-5.511383160E0,1.052550473E1
1.587630775E1,-1.641227480E1,-1.919634467E1,-1.046331057E1,2.733758001E1
1.588626675E1,-1.957921684E1,-3.030327464E1,-1.764285057E1,4.016098059E1
1.589622575E1,-1.129977933E1,-2.833136665E1,-1.278952416E0,3.052846325E1
1.590618375E1,-8.435369886E0,-1.578152863E1,8.548202437E0,1.983138613E1
1.591614275E1,-1.168071140E1,-7.145130297E0,1.425715190E0,1.376679227E1
1.592610175E1,-5.838519673E0,-1.316343431E1,-1.300490635E0,1.445875481E1
1.593606075E1,2.248000064E-1,-1.943528412E1,-5.639168211E0,2.023810816E1
1.594601975E1,-3.844511547E0,-2.061082239E1,-7.158837340E0,2.215480130E1
1.595597875E1,-1.000732248E1,-1.725225188E1,-3.570266316E0,2.026162629E1
1.596593775E1,-1.097769130E1,-1.702516591E1,-1.785232414E0,2.033600343E1
1.597589575E1,-1.136947346E1,-1.898989469E1,-2.430929329E0,2.226635229E1
1.598585475E1,-9.653809760E0,-2.007510049E1,-3.116757439E0,2.249266279E1
1.599581375E1,-7.801853306E0,-1.884288633E1,-3.915272212E0,2.076662314E1
1.600577275E1,-6.720718335E0,-1.585201213E1,-3.591851020E0,1.758851152E1
1.601573175E1,-5.855481277E0,-1.174410691E1,-2.415258791E0,1.334331979E1
1.602569075E1,-4.905954850E0,-7.572224962E0,-1.848094368E0,9.209909698E0
1.603564975E1,-4.178993040E0,-3.258654453E0,-1.915106968E0,5.634753443E0
1.604560875E1,-3.907757663E0,1.093323492E0,-2.052956100E0,4.547587818E0
1.605556675E1,-2.849223349E0,3.941493466E0,-1.756806468E0,5.171055347E0
1.606552575E1,-7.185251552E-1,5.174239138E0,-1.411938858E0,5.411339981E0
1.607548475E1,1.994708330E0,6.264827887E0,-3.942322601E0,7.666083568E0
1.608544375E1,5.779304920E0,6.170449149E0,-3.734908998E0,9.242529594E0
1.609540275E1,7.778964965E0,6.415743939E0,-2.223202608E0,1.032553611E1
1.610536175E1,7.943641854E0,8.590218190E0,-1.499481032E0,1.179583561E1
1.611532075E1,7.000180160E0,1.124724795E1,-1.824677439E0,1.337282903E1
1.612527975E1,7.039666407E0,1.149075875E1,-1.980970005E0,1.362052429E1
1.613523775E1,7.150695092E0,1.121376679E1,-1.772150731E0,1.341721000E1
1.614519675E1,6.988876907E0,1.109460170E1,-1.438705072E0,1.319107500E1
1.615515575E1,6.641165797E0,1.101202499E1,-9.785748088E-1,1.289679751E1
1.616511475E1,5.952438637E0,1.027539860E1,-5.563508749E-1,1.188801365E1
1.617507375E1,4.484883110E0,8.499194584E0,-9.180950839E-2,9.610354524E0
1.618503275E1,3.495351496E0,6.771447608E0,4.826853132E-1,7.635638147E0
1.619499175E1,2.821331546E0,5.464677941E0,8.380942833E-1,6.206852561E0
1.620495050E1,2.327312282E0,5.172452813E0,9.096513391E-1,5.744398674E0
1.621490850E1,2.493741874E0,5.702912217E0,5.433829200E-1,6.247977376E0
1.622486750E1,3.178277457E0,6.769482359E0,-3.006579816E-1,7.484499598E0
1.623482650E1,3.940975110E0,8.274728161E0,-9.896646380E-1,9.218559923E0
1.624478550E1,4.209439200E0,9.830778666E0,-1.255818200E0,1.076757479E1
1.625474450E1,3.965277016E0,1.085380050E1,-1.285568833E0,1.162674049E1
1.626470350E1,3.612135596E0,1.124033420E1,-1.075969541E0,1.185539316E1
1.627466250E1,3.431927625E0,1.104604175E1,-6.108714100E-1,1.158301901E1
1.628462050E1,3.446324055E0,1.032100221E1,1.123016238E-1,1.088176676E1
1.629457950E1,3.510039117E0,9.336008912E0,7.949956993E-1,1.000567115E1
1.630453850E1,3.626107517E0,8.271725616E0,1.231220133E0,9.115152407E0
1.631449750E1,3.885057602E0,7.358206344E0,1.564594456E0,8.466689375E0
1.632445650E1,4.151684789E0,6.860348091E0,1.664324420E0,8.189678766E0
1.633441550E1,4.428161610E0,6.823431695E0,1.549091148E0,8.280550629E0
1.634437450E1,4.641858339E0,6.981578413E0,1.352887827E0,8.492325444E0
1.635433350E1,4.705005052E0,7.286474456E0,1.212532286E0,8.757854594E0
1.636429150E1,4.745760730E0,7.771642497E0,1.222381628E0,9.187757553E0
1.637425050E1,4.853520529E0,8.176429449E0,1.505319038E0,9.626871011E0
1.638420950E1,4.860187816E0,8.335021141E0,1.932039481E0,9.840059938E0
1.639416850E1,4.635456515E0,8.039991104E0,1.760264657E0,9.446028039E0
1.640412750E1,3.872977255E0,7.071251897E0,8.044400489E-1,8.102449012E0
1.641408650E1,1.377636752E0,4.308590435E0,7.004582821E-1,4.577387504E0
1.642404450E1,-1.296796072E0,-3.271651644E-1,-2.314948052E0,2.673518577E0
1.643400350E1,-8.529816452E0,-6.423265212E0,-1.233826822E1,1.631713723E1
1.644396250E1,-1.884330031E1,-1.545911666E1,-8.396288266E0,2.577890439E1
1.645392150E1,-1.751643493E1,-2.932606457E1,1.000895093E0,3.417375231E1
1.646388050E1,-1.795416334E1,-3.496349382E1,-2.385035118E0,3.937621457E1
1.647383950E1,-1.016349225E1,-2.290063414E1,-2.600006540E0,2.518919714E1
1.648379850E1,-5.378273635E0,-1.396909877E1,1.450372314E0,1.503878743E1
1.649375650E1,-2.947372665E0,-1.437735838E1,-2.523535484E0,1.489173163E1
1.650371550E1,-7.748674049E0,-1.873705874E1,-7.758197410E0,2.170965101E1
1.651367450E1,-1.118574693E1,-2.120764067E1,-5.290499911E0,2.455349968E1
1.652363350E1,-1.175807591E1,-1.957648385E1,-2.215850319E0,2.294343178E1
1.653359250E1,-1.137310225E1,-1.846555381E1,-1.795440483E0,2.176115205E1
1.654355150E1,-1.048292681E1,-1.963846785E1,-3.419551409E0,2.252231129E1
1.655351050E1,-9.042821333E0,-2.023341970E1,-4.662718281E0,2.264740233E1
