"Time (s)","Linear Acceleration x (m/s^2)","Linear Acceleration y (m/s^2)","Linear Acceleration z (m/s^2)","Absolute acceleration (m/s^2)"
4.187499988E-3,-2.266955276E0,-8.065707743E-1,-5.539997095E-1,2.469120960E0
1.414550000E-2,-2.592439073E0,-1.088464456E0,-1.186080798E0,3.051603329E0
2.410350001E-2,-3.289877415E0,-6.812368762E-1,-9.912065488E-1,3.502837066E0
3.406149999E-2,-3.591426220E0,3.891398031E-1,-1.499986231E-2,3.612477969E0
4.401950000E-2,-3.942593912E0,1.292561519E0,1.383058290E0,4.373512578E0
5.397650000E-2,-5.196817576E0,2.057539878E0,2.404931147E0,6.084741333E0
6.393450001E-2,-7.370624660E0,3.003141069E0,3.820788808E0,8.828555447E0
7.389249999E-2,-9.406460844E0,3.707114258E0,5.590662049E0,1.155334168E1
8.385050000E-2,-1.049128365E1,4.128772182E0,6.818673815E0,1.317604284E1
9.380850001E-2,-1.033045950E1,4.767702114E0,7.819086220E0,1.380534267E1
1.037655000E-1,-9.271818763E0,5.666363026E0,8.484789968E0,1.378644094E1
1.137235000E-1,-7.859445457E0,6.645591554E0,8.394139999E0,1.328142900E1
1.236815000E-1,-6.382103738E0,7.411556339E0,8.576058573E0,1.300812039E1
1.336429583E-1,-5.869654927E0,8.182320519E0,9.437099669E0,1.380079955E1
1.435999583E-1,-6.313536948E0,8.649631163E0,1.081800618E1,1.522189626E1
1.535579583E-1,-6.962329963E0,8.116283820E0,1.142562194E1,1.564905551E1
1.635159583E-1,-7.436881215E0,7.121764238E0,1.085479920E1,1.496173098E1
1.734739583E-1,-6.779246040E0,6.086585459E0,9.391233525E0,1.308434051E1
1.834319583E-1,-5.681081638E0,5.285789979E0,6.965526052E0,1.042750293E1
1.933889583E-1,-4.230041279E0,5.851301687E0,4.046670842E0,8.276866893E0
2.033469583E-1,-1.389195528E0,5.917730734E0,2.528638642E0,6.583571572E0
2.133049583E-1,-3.958261672E-2,4.730010377E0,2.017940195E0,5.142630415E0
2.232629583E-1,-9.659754478E-1,3.838137497E0,1.241684895E0,4.148034401E0
2.332209583E-1,-1.771976630E0,1.432095380E0,1.084065011E0,2.523092409E0
2.431779583E-1,-2.047709540E0,-1.859783537E0,1.321807245E0,3.065792484E0
2.531359583E-1,-1.804915896E0,-4.753864678E0,1.101997252E0,5.203013426E0
2.630939583E-1,-1.566097483E0,-7.332243537E0,1.534277228E-1,7.499199736E0
2.730519583E-1,-1.770777220E0,-9.928939383E0,-1.227479085E0,1.016002924E1
2.830099583E-1,-7.438973933E-2,-1.064990575E1,-4.138033587E-1,1.065820152E1
2.929669583E-1,1.381445628E0,-1.071033439E1,-6.857140893E-1,1.082080674E1
3.029249583E-1,2.815254535E0,-1.071801412E1,-3.722977754E-1,1.108783524E1
3.128829583E-1,3.769110239E0,-1.088375345E1,-8.187057933E-1,1.154697191E1
3.228409583E-1,3.957719197E0,-1.121344051E1,-1.269878415E0,1.195898744E1
3.327979583E-1,3.837344907E0,-1.145658294E1,-1.282712469E0,1.215005597E1
3.427559583E-1,3.650307389E0,-1.146310610E1,-9.005273438E-1,1.206393364E1
3.527139583E-1,3.563393206E0,-1.154314863E1,-1.076171855E0,1.212848702E1
3.626719583E-1,3.211984901E0,-1.189793078E1,-1.552710575E0,1.242129277E1
3.726299583E-1,2.748607678E0,-1.221544512E1,-1.977166976E0,1.267600619E1
3.825869583E-1,2.378701268E0,-1.184706001E1,-2.362881187E0,1.231236200E1
3.925449583E-1,2.142746821E0,-1.108930530E1,-2.738659226E0,1.162171718E1
4.025029583E-1,2.041436647E0,-1.047684454E1,-2.810145530E0,1.103760178E1
4.124609583E-1,1.915478558E0,-9.872389791E0,-2.956272127E0,1.048201713E1
4.224189583E-1,1.334182000E0,-9.467967705E0,-3.539340684E0,1.019555720E1
4.323759583E-1,4.925980248E-1,-9.125064760E0,-3.814257761E0,9.902425054E0
4.423339583E-1,-1.469459380E-1,-8.565406700E0,-3.580408604E0,9.284778447E0
4.522919583E-1,-8.485280550E-1,-7.700170811E0,-3.133250388E0,8.356427967E0
4.622499583E-1,-1.565804391E0,-6.934241694E0,-2.664288490E0,7.591698388E0
4.722069583E-1,-2.242761105E0,-6.503913519E0,-2.070883225E0,7.184666016E0
4.821649583E-1,-2.907509857E0,-6.053722937E0,-1.258900560E0,6.832715828E0
4.921229583E-1,-3.266126902E0,-5.298284310E0,-4.955217057E-1,6.243792383E0
5.020809583E-1,-3.375948429E0,-4.666145334E0,8.152942353E-1,5.816755518E0
5.120389583E-1,-3.907503894E0,-3.822917780E0,2.439320668E0,5.986114963E0
5.219959583E-1,-4.673634155E0,-2.309833201E0,4.265147670E0,6.735701172E0
5.319539583E-1,-5.164315828E0,-3.904185891E-1,6.574367205E0,8.369282454E0
5.419119583E-1,-5.300168867E0,1.620175164E0,9.280475566E0,1.080943959E1
5.518699583E-1,-4.630014219E0,3.561760663E0,1.189850498E1,1.325509681E1
5.618279583E-1,-3.869515995E0,5.819991016E0,1.284152404E1,1.462019798E1
5.717849583E-1,-3.565416927E0,8.076413410E0,1.258472602E1,1.537257234E1
5.817429583E-1,-2.888302338E0,9.420041587E0,1.262926075E1,1.601804299E1
5.917009583E-1,-2.097187217E0,1.024752142E1,1.417495818E1,1.761645052E1
6.016589583E-1,-1.491865618E0,1.086437694E1,1.614482549E1,1.951706278E1
6.116169583E-1,-1.707691318E0,1.075799855E1,1.671571722E1,1.995159003E1
6.215739583E-1,-2.662396623E0,1.027445136E1,1.394206592E1,1.752238307E1
6.315319583E-1,-2.648502762E0,1.011111523E1,9.379251995E0,1.404348910E1
6.414899583E-1,-2.311215190E0,1.077145533E1,4.138564514E0,1.176833386E1
6.514479583E-1,-1.915717417E0,1.141088695E1,6.092680304E-1,1.158660959E1
6.614049583E-1,-1.218702999E0,1.185985605E1,-5.800005233E-1,1.193640747E1
6.713629583E-1,-3.916561523E-1,1.255359428E1,-6.115532684E-1,1.257458235E1
6.813209583E-1,-3.811970184E-1,1.328144749E1,-5.131700644E-1,1.329682301E1
6.912789583E-1,-5.860093049E-1,1.173880232E1,-4.186721890E-1,1.176087468E1
7.012369583E-1,-2.501856932E-1,7.054778536E0,4.935728288E-1,7.076447358E0
7.111939583E-1,-5.234045190E-1,2.796575897E0,2.091517756E0,3.531180477E0
7.211519583E-1,-9.898201740E-1,-8.774986696E-1,3.678759648E0,3.909350386E0
7.311099583E-1,-1.050635017E0,-4.446119871E0,5.147254238E0,6.882299182E0
7.410679583E-1,-2.809113497E-1,-7.403662598E0,6.033257682E0,9.554754278E0
7.510259583E-1,1.762474466E0,-9.273443120E0,7.115352767E0,1.182079983E1
7.609829583E-1,4.665190776E0,-1.004354832E1,8.771868961E0,1.412736893E1
7.709409583E-1,7.133668585E0,-1.025539177E1,9.729760998E0,1.583447306E1
7.808989583E-1,8.660942602E0,-1.035645739E1,9.308763810E0,1.639881764E1
7.908569583E-1,9.228749927E0,-1.039591791E1,8.171479197E0,1.612507385E1
8.008139583E-1,8.869106988E0,-1.027646981E1,6.476820445E0,1.504048183E1
8.107719583E-1,7.794161294E0,-9.665549215E0,4.521729924E0,1.321430412E1
8.207299583E-1,5.747637570E0,-9.108918843E0,2.503553209E0,1.105782613E1
8.306879583E-1,3.587876083E0,-9.183574339E0,5.103318259E-1,9.872757011E0
8.406459583E-1,2.029313322E0,-9.925533965E0,-6.014562964E-1,1.014869877E1
8.506029583E-1,1.062585411E0,-1.000464445E1,-1.670249257E0,1.019861417E1
8.605609583E-1,2.472593080E-1,-9.380850624E0,-2.476169821E0,9.705303322E0
8.705189583E-1,-2.016733915E-2,-8.925173600E0,-2.737963992E0,9.335715148E0
8.804769583E-1,-2.644894445E-1,-8.803761429E0,-2.777548472E0,9.235309712E0
8.904349583E-1,-1.221871751E0,-8.512680602E0,-3.415924381E0,9.253498851E0
9.003919583E-1,-2.227215990E0,-8.445380904E0,-4.084994955E0,9.642205840E0
9.103499583E-1,-3.118534993E0,-8.439627244E0,-4.548873577E0,1.008190554E1
9.203079583E-1,-4.110000573E0,-8.253425000E0,-4.752055842E0,1.037271245E1
9.302659583E-1,-4.752635301E0,-8.211470643E0,-4.559608480E0,1.052643444E1
9.402229583E-1,-4.576194107E0,-8.415879362E0,-4.052996945E0,1.040169997E1
9.501809583E-1,-4.254324181E0,-8.630206128E0,-3.257103186E0,1.015817175E1
9.601389583E-1,-4.081781910E0,-8.570076286E0,-2.592730265E0,9.840193156E0
9.700969583E-1,-4.228098834E0,-8.320916487E0,-2.548030348E0,9.675067420E0
9.800539583E-1,-4.034133827E0,-7.942751323E0,-2.315673692E0,9.204557510E0
9.900119583E-1,-3.174776144E0,-7.175497811E0,-1.522093969E0,7.992730601E0
9.999699583E-1,-2.575176923E0,-5.954664672E0,-8.185461643E-1,6.539081385E0
1.009927958E0,-2.757647474E0,-4.511422745E0,9.035234571E-2,5.288262316E0
1.019885958E0,-3.159093327E0,-3.015875135E0,1.307695282E0,4.559105222E0
1.029842958E0,-3.081808339E0,-1.192539048E0,2.458413874E0,4.118675854E0
1.039800958E0,-2.910244600E0,1.416308482E0,3.624176767E0,4.859023625E0
1.049758958E0,-3.206203759E0,4.023248650E0,6.073049739E0,7.959158585E0
1.059716958E0,-4.037840962E0,6.662945505E0,8.474962553E0,1.151190656E1
1.069674958E0,-6.012706473E0,1.052499051E1,9.162740124E0,1.519486331E1
1.079631958E0,-7.356487262E0,1.450157312E1,9.963302300E0,1.907042004E1
1.089589958E0,-7.319603611E0,1.737958085E1,1.147210964E1,2.207341675E1
1.099547958E0,-5.591826814E0,1.834988302E1,1.457829561E1,2.409384645E1
1.109505958E0,-4.582699719E0,1.711925112E1,1.917403754E1,2.610964594E1
1.119462958E0,-4.992155088E0,1.469227655E1,2.208033293E1,2.698751017E1
1.129416958E0,-4.685176851E0,1.210985142E1,2.132137369E1,2.496398125E1
1.139374958E0,-3.075538077E0,9.332632729E0,1.725720564E1,1.985870375E1
1.149332958E0,-2.416711093E0,8.222672154E0,1.153962978E1,1.437413946E1
1.159290958E0,-3.220945174E0,8.626681427E0,7.395427380E0,1.181043887E1
1.169247958E0,-3.591856282E0,8.765841066E0,5.034679549E0,1.072797275E1
1.179205958E0,-3.518593594E0,8.475403433E0,3.921538673E0,9.979550581E0
1.189163958E0,-3.448092838E0,7.632393395E0,3.747294863E0,9.175237978E0
1.199121958E0,-2.552750805E0,5.946336483E0,3.952657262E0,7.582806451E0
1.209079958E0,-6.636148301E-1,3.624151624E0,4.132250983E0,5.536276530E0
1.219036958E0,2.007747767E0,7.905698687E-1,3.986136665E0,4.532696474E0
1.228994958E0,3.650649743E0,-2.510069931E0,3.108140397E0,5.411860247E0
1.238952958E0,3.858374126E0,-5.853215480E0,2.148938291E0,7.332470125E0
1.248910958E0,3.997015994E0,-8.212438942E0,1.194084759E0,9.211195832E0
1.258867958E0,4.584001309E0,-8.823408659E0,1.237004784E0,1.001976992E1
1.268825958E0,5.786637329E0,-8.764005625E0,2.357006198E0,1.076329152E1
1.278783958E0,6.509675950E0,-8.646734453E0,3.825712164E0,1.147945866E1
1.288741958E0,6.769211048E0,-8.412489147E0,5.063193496E0,1.192594316E1
1.298699958E0,6.885002875E0,-8.209081471E0,5.134448251E0,1.188086032E1
1.308656958E0,6.763243380E0,-8.109308091E0,4.438164734E0,1.145424135E1
1.318614958E0,5.977344267E0,-8.128989235E0,3.078238029E0,1.054915446E1
1.328572958E0,4.815822945E0,-8.111313102E0,1.292342248E0,9.521328655E0
1.338530958E0,3.293271723E0,-7.918353231E0,-4.658307141E-1,8.588536242E0
1.348488958E0,1.766988371E0,-7.752028012E0,-2.094579651E0,8.222131726E0
1.358445958E0,5.247186077E-1,-7.597417690E0,-3.068432833E0,8.210442450E0
1.368403958E0,-6.637838146E-1,-7.658050393E0,-2.980448610E0,8.244356778E0
1.378361958E0,-1.887505332E0,-7.820955575E0,-2.365413617E0,8.386012405E0
1.388319958E0,-2.849158445E0,-8.180954610E0,-1.539437980E0,8.798613042E0
1.398276958E0,-3.421102383E0,-8.453990344E0,-9.765940645E-1,9.172111547E0
1.408234958E0,-3.338358434E0,-8.383333760E0,-8.539419919E-1,9.063892039E0
1.418192958E0,-2.971173756E0,-8.192716869E0,-8.803176123E-1,8.759191873E0
1.428150958E0,-2.672452372E0,-8.116563317E0,-8.525766671E-1,8.587635805E0
1.438107958E0,-2.749038033E0,-8.212531913E0,-8.680820212E-1,8.703818526E0
1.448065958E0,-3.131081071E0,-8.435220782E0,-1.050291786E0,9.058682639E0
1.458023958E0,-3.672433838E0,-8.551611364E0,-1.231964484E0,9.388001049E0
1.467981958E0,-4.084662541E0,-8.617232326E0,-1.286058830E0,9.622635208E0
1.477939958E0,-4.198225994E0,-8.537376902E0,-1.267624898E0,9.597852820E0
1.487896958E0,-4.251499684E0,-8.205164421E0,-1.282684402E0,9.329804500E0
1.497854958E0,-4.209799096E0,-7.777908958E0,-9.945090562E-1,8.899849687E0
1.507812958E0,-3.980036850E0,-7.579317049E0,-4.658026475E-1,8.573430607E0
1.517770958E0,-4.061587089E0,-7.107347928E0,2.277233219E-1,8.189184463E0
1.527727958E0,-4.477937495E0,-6.197337570E0,5.816541159E-1,7.667935751E0
1.537685958E0,-4.726567537E0,-4.869133764E0,9.496325532E-1,6.852058543E0
1.547643958E0,-4.675037194E0,-2.953250286E0,1.606899646E0,5.758453481E0
1.557601958E0,-4.823426372E0,-8.036904359E-1,2.971495645E0,5.721987998E0
1.567559958E0,-5.172001408E0,1.420296868E0,5.299968892E0,7.540325724E0
1.577516958E0,-5.220071368E0,3.827047083E0,9.020112501E0,1.110215583E1
1.587474958E0,-4.411100604E0,6.331787277E0,1.280381418E1,1.494948147E1
1.597432958E0,-2.296084350E0,9.420385988E0,1.521324826E1,1.804047112E1
1.607390958E0,-4.884793192E-2,1.202392425E1,1.614646739E1,2.013170508E1
1.617347958E0,1.376869013E0,1.383954786E1,1.605283592E1,2.123964205E1
1.627305958E0,1.880820357E0,1.510474733E1,1.595114466E1,2.204835352E1
1.637263958E0,9.078805098E-1,1.550551783E1,1.603755832E1,2.232596262E1
1.647221958E0,-1.156036927E0,1.517636286E1,1.496731086E1,2.134663452E1
1.657179958E0,-2.212159849E0,1.400565907E1,1.266536731E1,1.901219783E1
1.667136958E0,-2.089978477E0,1.319389830E1,1.007820827E1,1.673371580E1
1.677094958E0,-1.441483669E0,1.318626886E1,7.413863651E0,1.519608291E1
1.687052958E0,-8.268363467E-1,1.313918708E1,4.940345834E0,1.406161130E1
1.697010958E0,-2.173985643E-1,1.249307442E1,3.191413519E0,1.289609596E1
1.706968958E0,4.904030532E-1,1.140035729E1,2.266798863E0,1.163387375E1
1.716925958E0,1.655523045E0,9.876403320E0,1.728446887E0,1.016226489E1
1.726883958E0,3.079131776E0,7.239623641E0,1.608974238E0,8.030068558E0
1.736841958E0,4.002386954E0,3.994109636E0,2.056806930E0,6.016848666E0
1.746799958E0,3.858846581E0,7.463783669E-1,2.802518130E0,4.827202655E0
1.756756958E0,3.229327450E0,-2.381906565E0,3.490907612E0,5.318690687E0
1.766714958E0,2.876162934E0,-4.926763337E0,3.822145070E0,6.866884529E0
1.776672958E0,3.072146107E0,-6.284177493E0,3.700974390E0,7.913670445E0
1.786630958E0,3.428668387E0,-6.558900150E0,3.037615083E0,8.000127716E0
1.796588958E0,3.568948646E0,-6.527349744E0,1.728549213E0,7.637510818E0
1.806545958E0,3.474458518E0,-6.750320449E0,1.700016555E-1,7.593917877E0
1.816503958E0,3.321780408E0,-6.747447127E0,-1.145664551E0,7.607549873E0
1.826461958E0,3.289530675E0,-6.700098129E0,-1.874279369E0,7.695794316E0
1.836419958E0,3.039072501E0,-7.023475467E0,-2.052368893E0,7.923218246E0
1.846377958E0,2.494927104E0,-7.416885492E0,-1.968243540E0,8.069004541E0
1.856334958E0,1.830445717E0,-7.794268298E0,-1.706407270E0,8.186145344E0
1.866292958E0,1.158610213E0,-8.214045757E0,-1.382896907E0,8.409835265E0
1.876250958E0,6.968993743E-1,-8.509112631E0,-1.274274352E0,8.632174791E0
1.886208958E0,4.357505172E-1,-8.599981871E0,-1.352314800E0,8.716554480E0
1.896165958E0,3.588271062E-1,-8.593334756E0,-1.443681638E0,8.721145326E0
1.906123958E0,2.289349381E-1,-8.630031297E0,-1.383891811E0,8.743283590E0
1.916081958E0,6.706690572E-2,-8.784967893E0,-1.217516306E0,8.869188509E0
1.926039958E0,-3.974498659E-2,-8.980911598E0,-1.146371187E0,9.053867665E0
1.935996958E0,-2.262991595E-1,-9.131003777E0,-1.021046937E0,9.190700633E0
1.945954958E0,-7.091010515E-1,-9.266375590E0,-6.756510311E-1,9.317995771E0
1.955912958E0,-1.202359154E0,-9.402015790E0,-4.553279454E-1,9.489514845E0
1.965870958E0,-1.403029163E0,-9.426486973E0,-6.032604548E-1,9.549401586E0
1.975828958E0,-1.612523059E0,-9.232458816E0,-9.862054253E-1,9.423965595E0
1.985785958E0,-1.816756362E0,-9.107025515E0,-1.283380805E0,9.374731127E0
1.995743958E0,-1.864232098E0,-9.074385188E0,-1.454965594E0,9.377459823E0
2.005701958E0,-1.794330389E0,-8.916282324E0,-1.540891890E0,9.224644158E0
2.015659958E0,-1.842761415E0,-8.468686152E0,-1.746638452E0,8.841106302E0
2.025616958E0,-2.225534770E0,-7.900929113E0,-1.937933913E0,8.434054405E0
2.035574958E0,-2.887232005E0,-7.378424261E0,-1.448609379E0,8.054546689E0
2.045532958E0,-3.687825463E0,-6.673645325E0,-5.269075128E-1,7.642985680E0
2.055490958E0,-4.228235659E0,-5.755151827E0,1.354174215E-1,7.142694675E0
2.065448958E0,-4.401390718E0,-4.576550787E0,4.478987655E-1,6.365349218E0
2.075405958E0,-4.094782610E0,-2.923411945E0,1.223979526E0,5.178002308E0
2.085363958E0,-3.535253188E0,-6.100271451E-1,2.552759283E0,4.403036246E0
2.095321958E0,-3.012605957E0,2.565238411E0,3.689503614E0,5.410053574E0
2.105279958E0,-2.441750333E0,6.169680825E0,4.361322965E0,7.940292449E0
2.115236958E0,-1.801441042E0,9.897771385E0,4.878176191E0,1.118068295E1
2.125194958E0,-1.675977775E0,1.282400110E1,5.555008652E0,1.407558265E1
2.135153625E0,-1.658996291E0,1.389784693E1,7.318003228E0,1.579416314E1
2.145111625E0,-1.758939824E0,1.405813900E1,1.049414177E1,1.763099977E1
2.155069625E0,-2.841303296E0,1.463513639E1,1.320853271E1,1.991797073E1
2.165026625E0,-3.907601835E0,1.482554980E1,1.342224728E1,2.037702139E1
2.174984625E0,-4.286613383E0,1.450219293E1,1.081401137E1,1.859116714E1
2.184942625E0,-3.922380087E0,1.413706705E1,7.042636793E0,1.627391973E1
2.194900625E0,-3.575463029E0,1.421124834E1,2.949681730E0,1.494804795E1
2.204857625E0,-2.877579714E0,1.444201221E1,3.371884614E-1,1.472976163E1
2.214815625E0,-1.418633628E0,1.391336311E1,3.803233713E-2,1.398555114E1
2.224773625E0,-5.067444860E-1,1.271965169E1,5.034560850E-1,1.273969376E1
2.234731625E0,-7.043839565E-1,1.106954054E1,1.432946734E0,1.118410572E1
2.244689625E0,-1.087141743E0,7.990415486E0,2.406102636E0,8.415339964E0
2.254646625E0,-1.804806846E0,4.299749445E0,3.577914181E0,5.877639231E0
2.264604625E0,-1.856351221E0,1.414795223E0,5.326696515E0,5.815615285E0
2.274562625E0,2.211416960E-3,-1.020883507E0,6.311050712E0,6.393087604E0
2.284520625E0,2.926614465E0,-2.729614168E0,6.085806609E0,7.283742707E0
2.294477625E0,5.242655654E0,-3.480593709E0,4.695503911E0,7.851606705E0
2.304435625E0,6.131379223E0,-3.915033646E0,2.898494912E0,7.830873028E0
2.314393625E0,5.519395015E0,-4.759120740E0,1.127415976E0,7.374552077E0
2.324351625E0,4.096559286E0,-5.942970241E0,-3.146348736E-1,7.224935181E0
2.334309625E0,2.647216082E0,-7.160459358E0,-9.107751739E-1,7.688266554E0
2.344266625E0,1.218729896E0,-8.405255556E0,-9.278388110E-1,8.543682367E0
2.354224625E0,1.407237331E-1,-9.653359525E0,-8.436546931E-1,9.691176736E0
2.364182625E0,-6.031645605E-1,-1.066319764E1,-7.494674510E-1,1.070650703E1
2.374140625E0,-1.136610430E0,-1.117549559E1,-8.333200318E-1,1.126401382E1
2.384098625E0,-1.530433853E0,-1.110607979E1,-1.301825262E0,1.128636279E1
2.394055625E0,-1.678649367E0,-1.070572795E1,-1.718936099E0,1.097201968E1
2.404013625E0,-1.514581466E0,-1.048925935E1,-1.967174377E0,1.077906739E1
2.413971625E0,-1.489324711E0,-1.033643418E1,-1.983607099E0,1.062989449E1
2.423929625E0,-1.712190751E0,-1.020642485E1,-1.514204613E0,1.045923138E1
2.433886625E0,-1.874250425E0,-1.033583776E1,-7.989986300E-1,1.053474042E1
2.443844625E0,-1.766480978E0,-1.057205241E1,-1.654639238E-1,1.071989392E1
2.453802625E0,-1.452423225E0,-1.062142162E1,1.233037448E-1,1.072097637E1
2.463760625E0,-1.120581531E0,-1.040894901E1,2.485212833E-2,1.046912318E1
2.473718625E0,-9.376340666E-1,-1.015574820E1,-2.730661404E-1,1.020259498E1
2.483675625E0,-8.182157966E-1,-9.893404684E0,-5.233468509E-1,9.940967018E0
2.493633625E0,-7.947735782E-1,-9.565571183E0,-6.390787438E-1,9.619783716E0
2.503591625E0,-9.013545055E-1,-9.214228951E0,-7.979557791E-1,9.292534021E0
2.513549625E0,-1.075958724E0,-8.929325123E0,-8.759023798E-1,9.036467192E0
2.523506625E0,-1.337147415E0,-8.613790655E0,-6.992603338E-1,8.744959558E0
2.533464625E0,-1.675736285E0,-8.212017358E0,-5.507574284E-1,8.399324671E0
2.543422625E0,-1.997294261E0,-7.633955187E0,-5.291051888E-1,7.908628734E0
2.553380625E0,-2.175804493E0,-6.667306359E0,-1.976288724E-1,7.016135435E0
2.563337625E0,-2.253293256E0,-5.207532599E0,4.008047059E-1,5.688266052E0
2.573295625E0,-2.355616607E0,-3.448980153E0,1.215908614E0,4.350037638E0
2.583253625E0,-2.437427632E0,-1.404967808E0,2.793031315E0,3.964342559E0
2.593211625E0,-2.387255014E0,1.249282182E0,4.667677304E0,5.389517964E0
2.603169625E0,-2.747315736E0,4.827240218E0,5.854187288E0,8.069789382E0
2.613126625E0,-2.694176825E0,8.922747005E0,6.089502634E0,1.113355492E1
2.623084625E0,-1.863325488E0,1.278290921E1,6.483620757E0,1.445379147E1
2.633042625E0,-7.823165238E-1,1.587057704E1,7.896194038E0,1.774364999E1
2.643000625E0,7.336405000E-1,1.726705820E1,1.057688338E1,2.026227997E1
2.652958625E0,8.787526050E-1,1.836341231E1,1.361133103E1,2.287477760E1
2.662915625E0,-4.714759085E-1,1.967401190E1,1.538740056E1,2.498121554E1
2.672873625E0,-1.233966570E0,1.928047675E1,1.579093680E1,2.495221717E1
2.682831625E0,-1.204769376E0,1.776656829E1,1.541557596E1,2.355297009E1
2.692789625E0,-1.429363268E0,1.751127418E1,1.395522332E1,2.243738088E1
2.702746625E0,-1.309024647E0,1.742990901E1,1.169002017E1,2.102788256E1
2.712704625E0,-4.590368342E-1,1.722793097E1,9.552847642E0,1.970454817E1
2.722662625E0,3.837647501E-1,1.681364522E1,7.654527445E0,1.847803375E1
2.732620625E0,1.295524010E0,1.488002246E1,5.552514814E0,1.593498891E1
2.742578625E0,2.274839369E0,1.158145725E1,4.002712060E0,1.246301529E1
2.752535625E0,2.477208872E0,7.655215663E0,3.770458900E0,8.885676730E0
2.762493625E0,2.356481410E0,3.583562592E0,4.686397457E0,6.352735365E0
2.772451625E0,1.984394134E0,-1.611861008E-1,5.880489818E0,6.208378334E0
2.782409625E0,1.553554913E0,-3.674818332E0,6.821817863E0,7.902848954E0
2.792366625E0,1.471184894E0,-6.517594834E0,7.372473550E0,9.949713245E0
2.802324625E0,1.645108861E0,-8.206830878E0,7.144309348E0,1.100452690E1
2.812282625E0,2.169991776E0,-9.105291815E0,6.052465786E0,1.114663830E1
2.822240625E0,2.784515137E0,-9.555884101E0,4.228077199E0,1.081411496E1
2.832197625E0,3.023515984E0,-9.806118034E0,1.949912226E0,1.044527441E1
2.842155625E0,3.012745998E0,-1.021810057E1,-2.869433373E-2,1.065302967E1
2.852113625E0,2.691272221E0,-1.071451514E1,-1.224523902E0,1.111500066E1
2.862071625E0,2.189030018E0,-1.105468276E1,-1.904160103E0,1.142907210E1
2.872029625E0,1.740655581E0,-1.147404273E1,-2.314164526E0,1.183380310E1
2.881986625E0,1.061403469E0,-1.182193335E1,-2.314001973E0,1.209294384E1
2.891944625E0,2.868994832E-1,-1.186290362E1,-2.082205188E0,1.204767082E1
2.901902625E0,-1.850735117E-1,-1.196322079E1,-1.942437731E0,1.212130225E1
2.911860625E0,-4.621172205E-1,-1.189995158E1,-2.049956917E0,1.208406899E1
2.921817625E0,-4.520763818E-1,-1.165229276E1,-2.131879916E0,1.185433303E1
2.931775625E0,-2.580826503E-1,-1.142333802E1,-2.330241153E0,1.166144425E1
2.941733625E0,-3.546743406E-1,-1.111613232E1,-2.661019019E0,1.143569910E1
2.951691625E0,-5.404695448E-1,-1.105137558E1,-2.635818397E0,1.137420538E1
2.961649625E0,-7.770994187E-1,-1.102303529E1,-2.295013725E0,1.128619859E1
2.971606625E0,-1.104318377E0,-1.090777966E1,-2.046148625E0,1.115284270E1
2.981564625E0,-1.321181008E0,-1.076086953E1,-1.973050828E0,1.101974419E1
2.991522625E0,-1.529510285E0,-1.052069866E1,-1.887177450E0,1.079749696E1
3.001480625E0,-1.753422099E0,-1.022364607E1,-1.697772101E0,1.051093992E1
3.011437625E0,-1.950356030E0,-9.788509728E0,-1.334564115E0,1.006975038E1
3.021395625E0,-1.979748521E0,-9.263608103E0,-1.106610998E0,9.537212758E0
3.031353625E0,-1.812240996E0,-8.623919202E0,-1.090543726E0,8.879498040E0
3.041311625E0,-1.627126334E0,-7.964773691E0,-8.554879957E-1,8.174167834E0
3.051269625E0,-1.564469033E0,-7.322986225E0,-4.531603825E-1,7.501936079E0
3.061226625E0,-2.160785042E0,-6.470367458E0,-7.235315412E-2,6.822014513E0
3.071184625E0,-2.854295224E0,-5.350670099E0,1.156012076E-1,6.065478990E0
3.081142625E0,-3.361880613E0,-3.892111976E0,3.513697135E-1,5.155020617E0
3.091100625E0,-3.702772993E0,-2.118683628E0,1.329348106E0,4.468390599E0
3.101057625E0,-3.711359629E0,-2.571915346E-1,3.186997409E0,4.898702917E0
3.111015625E0,-3.452248161E0,1.760778481E0,5.610239697E0,6.818588394E0
3.120973625E0,-3.207015645E0,4.441264343E0,7.900845498E0,9.614215407E0
3.130931083E0,-3.101940887E0,7.510832121E0,9.059184766E0,1.216977670E1
3.140889083E0,-3.199148801E0,1.074750981E1,9.013109876E0,1.438678803E1
3.150846083E0,-3.205793869E0,1.371455193E1,8.830490806E0,1.662358616E1
3.160804083E0,-2.512097453E0,1.584775653E1,9.566550007E0,1.868103048E1
3.170762083E0,-1.922708056E0,1.748792040E1,1.129749658E1,2.090831402E1
3.180720083E0,-2.375437060E0,1.893479053E1,1.299156476E1,2.308570442E1
3.190677083E0,-3.197824114E0,1.960104567E1,1.325803290E1,2.387891343E1
3.200635083E0,-3.581416664E0,1.932529098E1,1.150190120E1,2.277250860E1
3.210593083E0,-3.305692379E0,1.922963871E1,9.040989985E0,2.150456015E1
3.220551083E0,-2.520737299E0,1.953880790E1,6.740350946E0,2.082189861E1
3.230509083E0,-1.489631543E0,1.928202860E1,4.710465474E0,1.990487664E1
3.240466083E0,-1.145766439E0,1.849169437E1,3.881057230E0,1.892929335E1
3.250424083E0,-1.088195484E0,1.653158489E1,4.526038153E0,1.717447204E1
3.260382083E0,-5.654000258E-1,1.307909875E1,5.163052245E0,1.407265468E1
3.270340083E0,2.059823509E-1,9.355333375E0,5.620473493E0,1.091578735E1
3.280297083E0,9.866746643E-1,5.687044044E0,5.951739895E0,8.290910964E0
3.290255083E0,1.362879257E0,1.853449833E0,5.988629394E0,6.415325258E0
3.300213083E0,1.292099881E0,-1.689708499E0,5.815552980E0,6.192357659E0
3.310171083E0,1.556115993E0,-4.613436778E0,5.537758781E0,7.373741804E0
3.320129083E0,2.180760593E0,-6.896180413E0,4.915662982E0,8.745099405E0
3.330086083E0,2.573637351E0,-8.595419288E0,3.869149083E0,9.771138960E0
3.340044083E0,2.519552945E0,-9.987859436E0,2.426389259E0,1.058266734E1
3.350002083E0,1.952594929E0,-1.101828151E1,8.018438852E-1,1.121865000E1
3.359960083E0,1.177894404E0,-1.153949412E1,-7.388565087E-1,1.162296300E1
3.369917083E0,7.470598599E-1,-1.181939800E1,-1.994891641E0,1.200982348E1
3.379875083E0,6.080718362E-1,-1.211701660E1,-2.857933654E0,1.246433421E1
3.389833083E0,3.800745723E-1,-1.214945812E1,-3.233766949E0,1.257819693E1
3.399791083E0,1.422090355E-1,-1.203483749E1,-3.536599802E0,1.254452370E1
3.409749083E0,-3.278796941E-2,-1.191292538E1,-3.739820659E0,1.248619737E1
3.419706083E0,-1.628570158E-1,-1.178715879E1,-3.588811637E0,1.232246744E1
3.429664083E0,-2.460984895E-1,-1.168002494E1,-3.262821763E0,1.212969714E1
3.439622083E0,-3.414274004E-1,-1.151056912E1,-3.126078193E0,1.193239871E1
3.449580083E0,-6.703326961E-1,-1.125924877E1,-3.069071934E0,1.168927848E1
3.459537083E0,-8.016181827E-1,-1.094836401E1,-2.796518009E0,1.132827344E1
3.469495083E0,-9.961886689E-1,-1.077876552E1,-2.556418471E0,1.112247515E1
3.479453083E0,-1.179220479E0,-1.058326620E1,-2.295817717E0,1.089343212E1
3.489411083E0,-1.094561348E0,-1.033928411E1,-1.929673551E0,1.057461586E1
3.499368083E0,-1.248508888E0,-1.020615120E1,-1.864112815E0,1.044984274E1
3.509326083E0,-1.470397566E0,-1.002839117E1,-2.006149285E0,1.033224725E1
3.519284083E0,-1.906362164E0,-9.798933560E0,-2.219694863E0,1.022645397E1
3.529242083E0,-2.416893088E0,-9.561603262E0,-2.373211756E0,1.014385347E1
3.539200083E0,-2.896947446E0,-9.151638601E0,-2.026464266E0,9.810777289E0
3.549157083E0,-3.180250307E0,-8.589827011E0,-1.322289348E0,9.254597194E0
3.559115083E0,-3.029535985E0,-8.087599134E0,-6.088319743E-1,8.657830237E0
3.569073083E0,-2.776110350E0,-7.380568435E0,8.557633996E-2,7.885867258E0
3.579031083E0,-2.733278618E0,-6.364244002E0,6.972924533E-1,6.961366998E0
3.588988083E0,-2.979392018E0,-5.219827539E0,1.603317642E0,6.220450450E0
3.598946083E0,-3.363617528E0,-3.925440520E0,2.906443909E0,5.930465610E0
3.608904083E0,-3.588074303E0,-2.251810110E0,4.800264381E0,6.402145274E0
3.618862083E0,-3.765680555E0,-2.250640082E-1,7.632399827E0,8.513784762E0
3.628820083E0,-3.920637909E0,2.047421272E0,1.051685119E1,1.140909700E1
3.638777083E0,-3.814536673E0,4.868592896E0,1.210351538E1,1.359223938E1
3.648735083E0,-3.237509167E0,7.918850829E0,1.218751648E1,1.489044062E1
3.658693083E0,-2.326670550E0,1.084941041E1,1.185172608E1,1.623534765E1
3.668651083E0,-1.610451829E0,1.316694615E1,1.179705813E1,1.775197472E1
3.678608083E0,-1.844012427E0,1.469817522E1,1.229601273E1,1.925171851E1
3.688566083E0,-3.325514440E0,1.569563888E1,1.318338852E1,2.076568946E1
3.698524083E0,-5.023639421E0,1.627986226E1,1.354167081E1,2.176344909E1
3.708482083E0,-5.947145737E0,1.665090084E1,1.308151248E1,2.199424947E1
3.718440083E0,-5.767769533E0,1.675432171E1,1.195269230E1,2.137384650E1
3.728397083E0,-4.963049988E0,1.629211919E1,9.961880257E0,1.973078993E1
3.738355083E0,-4.129984310E0,1.594839530E1,7.517346504E0,1.810852234E1
3.748313083E0,-2.734892742E0,1.575013376E1,6.165743895E0,1.713367297E1
3.758271083E0,-9.544135290E-1,1.528685067E1,6.390561735E0,1.659632453E1
3.768228083E0,5.622948620E-1,1.378197500E1,7.015895721E0,1.547519962E1
3.778186083E0,1.351214646E0,1.136030971E1,7.472200152E0,1.366441337E1
3.788144083E0,1.345330301E0,8.682436967E0,7.682788793E0,1.167132679E1
3.798102083E0,1.430516924E0,5.782851257E0,7.260491184E0,9.391617516E0
3.808060083E0,2.207903368E0,3.298085736E0,6.937433689E0,7.992508554E0
3.818017083E0,3.643748859E0,1.068345357E0,6.942072285E0,7.912688238E0
3.827975083E0,4.785136757E0,-1.235825400E0,6.672900975E0,8.303758524E0
3.837933083E0,5.353125930E0,-3.420793650E0,6.059011159E0,8.778918079E0
3.847891083E0,5.428514081E0,-5.508215724E0,5.084563315E0,9.255376259E0
3.857848083E0,5.058135070E0,-7.198855099E0,3.567630976E0,9.494010528E0
3.867806083E0,4.543097989E0,-8.563770649E0,1.511776849E0,9.811390131E0
3.877764083E0,4.018780208E0,-9.405194921E0,-6.784614953E-1,1.025029736E1
3.887722083E0,3.291510542E0,-9.944492977E0,-2.186637629E0,1.070085821E1
3.897680083E0,2.692900378E0,-1.070006551E1,-2.912167164E0,1.141156571E1
3.907637083E0,1.987928191E0,-1.100064747E1,-3.028786664E0,1.158186738E1
3.917595083E0,1.268175121E0,-1.110551612E1,-2.826781443E0,1.152959018E1
3.927553083E0,7.559653886E-1,-1.137520841E1,-2.458725823E0,1.166242611E1
3.937511083E0,2.495041271E-1,-1.142037231E1,-2.011693907E0,1.159888220E1
3.947468083E0,-1.304788631E-1,-1.118992418E1,-1.890411837E0,1.134923279E1
3.957426083E0,-1.550952756E-1,-1.086934474E1,-2.078566758E0,1.106739126E1
3.967384083E0,1.689768579E-1,-1.056621806E1,-2.011302728E0,1.075726991E1
3.977342083E0,2.966972970E-1,-1.023926515E1,-1.974412060E0,1.043210828E1
3.987300083E0,1.568772876E-1,-1.010622228E1,-2.106193975E0,1.032455289E1
3.997257083E0,-2.627884895E-2,-1.001958994E1,-1.925244870E0,1.020291335E1
4.007215083E0,-2.437874506E-1,-9.925711720E0,-1.734573892E0,1.007908389E1
4.017173083E0,-6.475938246E-1,-9.956273947E0,-1.636364058E0,1.011061106E1
4.027131083E0,-1.116347269E0,-1.005842013E1,-1.606256160E0,1.024685832E1
4.037088083E0,-1.528749124E0,-1.011558134E1,-1.812564932E0,1.038977629E1
4.047046083E0,-1.895459446E0,-1.012073975E1,-2.149006411E0,1.051857253E1
4.057004083E0,-2.186429468E0,-1.009606450E1,-2.329267884E0,1.058945141E1
4.066962083E0,-2.357357323E0,-9.958081906E0,-2.212513020E0,1.046975371E1
4.076919083E0,-2.298547782E0,-9.737615563E0,-1.884887095E0,1.018122184E1
4.086877083E0,-2.355888795E0,-9.287981637E0,-1.575165052E0,9.710713663E0
4.096835083E0,-2.556880693E0,-8.658623012E0,-1.197785169E0,9.107364089E0
4.106793083E0,-2.378725388E0,-7.870225384E0,-6.644340250E-1,8.248651686E0
4.116751083E0,-2.128664386E0,-6.553149413E0,5.344501287E-2,6.890416219E0
4.126708083E0,-2.242195534E0,-5.175981608E0,1.081487266E0,5.743504255E0
4.136666833E0,-2.844686787E0,-3.636271148E0,2.359431623E0,5.184749595E0
4.146624833E0,-3.258912022E0,-1.363533853E0,4.057969417E0,5.380227498E0
4.156582833E0,-2.874211425E0,1.883785188E0,6.455033720E0,7.312810559E0
4.166539833E0,-1.809490758E0,6.068145095E0,8.185448195E0,1.034882621E1
4.176497833E0,-7.553344010E-1,1.090009758E1,8.189359982E0,1.365460634E1
4.186455833E0,2.250563338E-1,1.548680908E1,7.725968142E0,1.730845139E1
4.196413833E0,8.079170957E-1,1.848829714E1,8.665740827E0,2.043440543E1
4.206371833E0,8.254350615E-1,1.992634264E1,1.068359858E1,2.262475973E1
4.216328833E0,-4.376521048E-1,2.140361127E1,1.235609287E1,2.471799235E1
4.226286833E0,-2.158027057E0,2.223728389E1,1.321291345E1,2.595640494E1
4.236244833E0,-3.013723652E0,2.138938149E1,1.260810904E1,2.501104924E1
4.246202833E0,-3.100817637E0,2.010856761E1,1.061711106E1,2.294978450E1
4.256159833E0,-3.059486885E0,1.969143426E1,8.760005545E0,2.176811293E1
4.266117833E0,-2.759338781E0,1.910044448E1,7.556207099E0,2.072527915E1
4.276075833E0,-2.016521515E0,1.800813665E1,7.099171182E0,1.946169510E1
4.286033833E0,-3.487811512E-1,1.574987882E1,7.821745534E0,1.758863367E1
4.295991833E0,1.544367183E0,1.222110756E1,8.892423345E0,1.519262100E1
4.305948833E0,2.663512564E0,8.261263778E0,9.491805634E0,1.286223746E1
4.315906833E0,2.911388023E0,4.433174136E0,9.683958589E0,1.104120768E1
4.325864833E0,2.650732013E0,9.581346971E-1,9.483159356E0,9.893164998E0
4.335822833E0,2.456110071E0,-2.093152345E0,8.827577723E0,9.398930358E0
4.345779833E0,2.740671837E0,-4.813514464E0,7.805431218E0,9.571100256E0
4.355737833E0,3.398551426E0,-7.093264325E0,6.420263836E0,1.015304576E1
4.365695833E0,4.291592872E0,-8.660091832E0,4.726830661E0,1.075908398E1
4.375653833E0,5.261793006E0,-9.419156903E0,2.514599769E0,1.107836605E1
4.385611833E0,5.780504769E0,-9.766428888E0,1.102957365E-1,1.134942879E1
4.395568833E0,5.877322381E0,-1.025713775E1,-1.794422776E0,1.195707934E1
4.405526833E0,5.566896041E0,-1.080358695E1,-3.233615506E0,1.257633062E1
4.415484833E0,4.666697018E0,-1.117811749E1,-4.296277369E0,1.285248500E1
4.425442833E0,3.392481431E0,-1.164372425E1,-4.746943914E0,1.302377523E1
4.435399833E0,2.516784581E0,-1.170023759E1,-4.529662549E0,1.279639039E1
4.445357833E0,1.641602286E0,-1.137172698E1,-4.126105852E0,1.220802122E1
4.455315833E0,8.400197715E-1,-1.123052374E1,-3.926263223E0,1.192668603E1
4.465273833E0,1.170928323E-1,-1.109570566E1,-3.604557604E0,1.166710034E1
4.475230833E0,-3.454251418E-1,-1.102105426E1,-2.917973449E0,1.140603018E1
4.485188833E0,-5.746120217E-1,-1.100779511E1,-2.401276637E0,1.128130585E1
4.495146833E0,-6.490160868E-1,-1.081377982E1,-2.006251026E0,1.101744521E1
4.505104833E0,-5.936745295E-1,-1.039531447E1,-1.461514914E0,1.051432538E1
4.515062833E0,-3.909194031E-1,-9.944124602E0,-9.381511067E-1,9.995927150E0
4.525019833E0,-3.521067551E-1,-9.676858315E0,-5.331701732E-1,9.697929493E0
4.534977833E0,-4.414381769E-1,-9.527190644E0,-2.785767026E-1,9.541479666E0
4.544935833E0,-6.256620151E-1,-9.301722593E0,-5.404113650E-2,9.322897436E0
4.554893833E0,-7.939518982E-1,-9.123761415E0,1.947447333E-1,9.160311539E0
4.564850833E0,-8.481962255E-1,-9.059230959E0,4.373536044E-1,9.109356760E0
4.574808833E0,-9.474471563E-1,-9.041074769E0,5.271393549E-1,9.105853337E0
4.584766833E0,-1.140192434E0,-9.017391207E0,2.858841142E-1,9.093685320E0
4.594724833E0,-1.346642124E0,-8.910217007E0,1.790008128E-1,9.013182202E0
4.604682833E0,-1.829083900E0,-8.566600116E0,4.151932418E-1,8.769525124E0
4.614639833E0,-2.356506553E0,-7.969729207E0,6.446482167E-1,8.335782992E0
4.624597833E0,-2.703791109E0,-7.033160795E0,8.126553869E-1,7.578670458E0
4.634555833E0,-2.948400898E0,-5.688915153E0,1.032111331E0,6.490152330E0
4.644513833E0,-3.152059419E0,-3.852816932E0,1.404369053E0,5.172226728E0
4.654470833E0,-3.019639865E0,-1.352072725E0,2.261817620E0,4.007760536E0
4.664428833E0,-3.098757955E0,1.697104057E0,3.993188407E0,5.331793010E0
4.674386833E0,-3.544452905E0,5.011860790E0,6.778916842E0,9.145250599E0
4.684344833E0,-4.021741238E0,8.557417064E0,9.902477224E0,1.369170715E1
4.694302833E0,-4.385536577E0,1.263152714E1,1.148026300E1,1.762341758E1
4.704259833E0,-4.376809316E0,1.627747426E1,1.179193713E1,2.057091173E1
4.714217833E0,-3.752238391E0,1.863821273E1,1.161430340E1,2.227901053E1
4.724175833E0,-3.140651793E0,2.026348608E1,1.158060122E1,2.354958357E1
4.734133833E0,-3.136478928E0,2.176881199E1,1.148073428E1,2.480979515E1
4.744090833E0,-2.758308209E0,2.194879163E1,1.112386117E1,2.476081593E1
4.754048833E0,-2.242996894E0,2.007145183E1,1.048825246E1,2.275736481E1
4.764006833E0,-2.516308618E0,1.860489997E1,9.182079206E0,2.089939450E1
4.773964833E0,-2.833277992E0,1.800628893E1,7.298235546E0,1.963461605E1
4.783922833E0,-2.880514432E0,1.720893571E1,5.347045995E0,1.824926663E1
4.793879833E0,-2.644810245E0,1.600601142E1,4.129889000E0,1.674047210E1
4.803837833E0,-2.076704128E0,1.419007440E1,3.681521580E0,1.480623222E1
4.813795833E0,-7.945977232E-1,1.194890915E1,3.728533194E0,1.254231937E1
4.823753833E0,9.077992335E-1,9.001551100E0,4.261516256E0,1.000062710E1
4.833710833E0,2.276501148E0,5.402057185E0,4.859923230E0,7.614691924E0
4.843668833E0,3.082531932E0,1.485631902E0,5.246180356E0,6.263506492E0
4.853626833E0,3.736726313E0,-2.230872400E0,5.748402970E0,7.209996665E0
4.863584833E0,4.528035854E0,-5.608486117E0,6.120199347E0,9.455953958E0
4.873542833E0,5.502194261E0,-8.244654177E0,5.975173781E0,1.157372740E1
4.883499833E0,6.490381892E0,-9.949463110E0,4.852045861E0,1.283196097E1
4.893457833E0,7.146502638E0,-1.078134882E1,2.811667560E0,1.323689755E1
4.903415833E0,7.085707383E0,-1.087277939E1,3.237081443E-1,1.298188614E1
4.913373833E0,6.390255926E0,-1.077348081E1,-1.929535118E0,1.267384572E1
4.923330833E0,5.360755962E0,-1.074870031E1,-3.535507542E0,1.252086564E1
4.933288833E0,3.948748106E0,-1.058050749E1,-4.363386740E0,1.210697708E1
4.943246833E0,2.523908536E0,-1.041020031E1,-4.621033773E0,1.166603352E1
4.953204833E0,1.330726587E0,-1.045724935E1,-4.465765931E0,1.144849172E1
4.963162833E0,2.738932291E-1,-1.042662397E1,-4.112725668E0,1.121178030E1
4.973119833E0,-5.965234391E-1,-1.025904862E1,-3.654730808E0,1.090692331E1
4.983077833E0,-1.193804970E0,-1.012317921E1,-3.321013546E0,1.072068368E1
4.993035833E0,-1.599144922E0,-1.001079105E1,-3.225227675E0,1.063838782E1
5.002993833E0,-1.872632355E0,-9.860269682E0,-3.148926773E0,1.051890726E1
5.012950833E0,-2.014824214E0,-9.712521068E0,-2.978281047E0,1.035677267E1
5.022908833E0,-1.968231407E0,-9.517255640E0,-2.703548742E0,1.008767890E1
5.032866833E0,-1.766237003E0,-9.177086853E0,-2.448615402E0,9.660964426E0
5.042824833E0,-1.626031297E0,-8.923180869E0,-2.148386606E0,9.321088971E0
5.052781833E0,-1.775191429E0,-8.804230961E0,-1.626023257E0,9.127416888E0
5.062739833E0,-2.081995566E0,-8.761160370E0,-1.076325052E0,9.069239890E0
5.072697833E0,-2.239238450E0,-8.655179586E0,-7.618176475E-1,8.972551958E0
5.082655833E0,-2.282062435E0,-8.548507077E0,-5.271592355E-1,8.863559052E0
5.092613833E0,-2.339032441E0,-8.436604233E0,-4.258606097E-1,8.765199428E0
5.102570833E0,-2.344934182E0,-8.252978858E0,-3.366385308E-1,8.586250744E0
5.112528833E0,-2.121647581E0,-7.964940337E0,-2.178140455E-1,8.245550678E0
5.122486833E0,-1.859030269E0,-7.595922557E0,-1.201906872E-1,7.821027991E0
5.132447958E0,-1.685818639E0,-6.958226388E0,-2.183408797E-2,7.159565327E0
5.142404958E0,-1.543289833E0,-6.014084077E0,3.954881251E-1,6.221524062E0
5.152362958E0,-1.503641911E0,-4.931879650E0,9.468925479E-1,5.242230573E0
5.162320958E0,-1.737413885E0,-3.527904700E0,1.217423628E0,4.116653844E0
5.172278958E0,-2.270182939E0,-1.600787551E0,1.815858083E0,3.318673220E0
5.182235958E0,-2.839625437E0,6.953736895E-1,3.482078609E0,4.546634869E0
5.192193958E0,-3.363636824E0,3.098398644E0,6.430345606E0,7.890720591E0
5.202151958E0,-3.815191561E0,6.267744479E0,9.189485289E0,1.175954707E1
5.212109958E0,-4.046916718E0,1.017536210E1,1.079582419E1,1.537742985E1
5.222067958E0,-4.032929885E0,1.378281817E1,1.072395723E1,1.792299804E1
5.232024958E0,-3.768566156E0,1.666300106E1,1.051638809E1,2.006120918E1
5.241982958E0,-3.067735260E0,1.842677975E1,1.160182661E1,2.198998846E1
5.251940958E0,-2.694846331E0,1.938310591E1,1.273203142E1,2.334676884E1
5.261898958E0,-2.658150083E0,1.975007482E1,1.273275530E1,2.364855756E1
5.271856958E0,-2.109826266E0,1.903687472E1,1.151627249E1,2.234901560E1
5.281813958E0,-1.551074085E0,1.835515019E1,9.605123504E0,2.077440172E1
5.291771958E0,-1.417401765E0,1.871687649E1,7.526087506E0,2.022306818E1
5.301729958E0,-1.088886771E0,1.883730575E1,5.575819477E0,1.967535324E1
5.311687958E0,-8.686734670E-1,1.829906721E1,4.170735310E0,1.878844026E1
5.321644958E0,-8.698573820E-1,1.722812159E1,3.383015959E0,1.757866953E1
5.331602958E0,-3.305837390E-1,1.534382945E1,3.300965490E0,1.569836810E1
5.341560958E0,5.118582050E-1,1.223363113E1,3.674454635E0,1.278379233E1
5.351518958E0,8.778009707E-1,8.380768586E0,4.228500538E0,9.428045049E0
5.361476958E0,1.014680196E0,4.323247066E0,4.835057945E0,6.564893482E0
5.371433958E0,1.017073461E0,3.730769169E-1,5.110023261E0,5.223596706E0
5.381391958E0,1.156277832E0,-3.162626799E0,5.135775568E0,6.141284669E0
5.391349958E0,1.698988322E0,-6.226151479E0,5.150080197E0,8.256806259E0
5.401307958E0,2.255655532E0,-8.618357915E0,4.905045608E0,1.016973684E1
5.411264958E0,2.508646719E0,-1.024310911E1,4.382960002E0,1.142037350E1
5.421222958E0,2.430780079E0,-1.123448932E1,3.519450796E0,1.202118863E1
5.431180958E0,2.044392122E0,-1.183939314E1,2.142260771E0,1.220409973E1
5.441138958E0,1.315827005E0,-1.200110139E1,6.135552089E-1,1.208860146E1
5.451096958E0,6.060769855E-1,-1.189654850E1,-7.531963666E-1,1.193576559E1
5.461053958E0,8.877666727E-2,-1.176743262E1,-1.585611834E0,1.187411120E1
5.471011958E0,-3.128011867E-1,-1.154879354E1,-1.811234690E0,1.169414588E1
5.480969958E0,-5.306409600E-1,-1.128923797E1,-1.655490008E0,1.142230804E1
5.490927958E0,-6.378207153E-1,-1.107649054E1,-1.286884457E0,1.116922242E1
5.500884958E0,-7.139368451E-1,-1.085365315E1,-9.245558918E-1,1.091633162E1
5.510842958E0,-9.212139156E-1,-1.059918700E1,-6.365957236E-1,1.065817312E1
5.520800958E0,-1.208399766E0,-1.030394705E1,-6.214960201E-1,1.039316180E1
5.530758958E0,-1.490086603E0,-1.000388899E1,-8.313132674E-1,1.014836119E1
5.540715958E0,-1.650196085E0,-9.780010800E0,-9.922194327E-1,9.967760921E0
5.550673958E0,-1.593997618E0,-9.614291353E0,-9.536583611E-1,9.792083073E0
5.560631958E0,-1.599347675E0,-9.502603687E0,-8.067514533E-1,9.669965756E0
5.570589958E0,-1.542766069E0,-9.398433201E0,-6.357405683E-1,9.545409360E0
5.580547958E0,-1.405190586E0,-9.184240336E0,-5.731499255E-1,9.308777147E0
5.590504958E0,-1.220604221E0,-8.961143332E0,-5.242490762E-1,9.059072887E0
5.600462958E0,-1.167201600E0,-8.817709962E0,-4.824414843E-1,8.907699947E0
5.610420958E0,-1.245467167E0,-8.667247070E0,-5.632961977E-1,8.774375353E0
5.620378958E0,-1.407881475E0,-8.335419336E0,-8.039865974E-1,8.491627653E0
5.630335958E0,-1.525708572E0,-8.033315338E0,-1.073509910E0,8.247082241E0
5.640293958E0,-1.639249367E0,-7.848154483E0,-1.263740885E0,8.116508381E0
5.650251958E0,-1.810450871E0,-7.649378387E0,-1.102823171E0,7.937691164E0
5.660209958E0,-2.055449499E0,-7.212732296E0,-5.523186350E-1,7.520201838E0
5.670167958E0,-2.093010550E0,-6.588805735E0,2.766171545E-2,6.913307410E0
5.680124958E0,-1.874768781E0,-5.635230696E0,4.806013656E-1,5.958318610E0
5.690082958E0,-1.590759869E0,-4.083785459E0,7.883087504E-1,4.453004752E0
5.700040958E0,-1.319594074E0,-2.059863562E0,1.154322231E0,2.704963258E0
5.709998958E0,-7.984197557E-1,4.677000690E-1,2.142392918E0,2.333680543E0
5.719955958E0,-1.899944553E-1,3.678979211E0,4.168770061E0,5.563239141E0
5.729913958E0,1.442858934E-2,7.610677421E0,6.521737586E0,1.002275811E1
5.739871958E0,-2.513045579E-1,1.228781610E1,8.309903256E0,1.483603959E1
5.749829958E0,-4.539545075E-1,1.673657892E1,9.404183353E0,1.920306780E1
5.759786958E0,-1.216326106E-1,1.981823932E1,1.023899852E1,2.230727449E1
5.769744958E0,3.900677562E-1,2.144148954E1,1.153954675E1,2.435263365E1
5.779702958E0,2.196467822E-1,2.255067360E1,1.288288724E1,2.597209865E1
5.789660958E0,2.956334692E-1,2.227748935E1,1.315934594E1,2.587551577E1
5.799618958E0,8.583461878E-1,2.012921296E1,1.169292623E1,2.329477402E1
5.809575958E0,3.730368635E-1,1.895149368E1,9.112500848E0,2.103178407E1
5.819533958E0,-3.321028456E-1,1.878775878E1,6.681793420E0,1.994333311E1
5.829491958E0,-7.318535909E-1,1.832870791E1,4.735541258E0,1.894472207E1
5.839449958E0,-1.139443406E0,1.753280480E1,3.705659471E0,1.795632166E1
5.849406958E0,-1.352047875E0,1.576912200E1,3.330324944E0,1.617356814E1
5.859364958E0,-1.361658066E0,1.321411330E1,2.909126612E0,1.359889409E1
5.869322958E0,-1.223401237E0,9.955027320E0,2.420016671E0,1.031774007E1
5.879280958E0,-1.178676469E0,6.362229636E0,2.597800970E0,6.972504144E0
5.889238958E0,-9.524944729E-1,2.557806015E0,3.371484372E0,4.337801771E0
5.899195958E0,-5.415983498E-1,-1.234136140E0,3.824270825E0,4.054808026E0
5.909153958E0,3.249584252E-1,-4.685843434E0,3.822446494E0,6.055891665E0
5.919111958E0,1.734063430E0,-7.349015690E0,3.485902396E0,8.316641336E0
5.929069958E0,3.167219203E0,-9.229877270E0,2.629549889E0,1.010625769E1
5.939026958E0,4.171143153E0,-1.032132030E1,1.228331024E0,1.119986094E1
5.948984958E0,4.433560929E0,-1.066757253E1,-6.645436603E-1,1.157130867E1
5.958942958E0,3.905116768E0,-1.060801630E1,-2.445413175E0,1.156546550E1
5.968900958E0,2.956205469E0,-1.071245576E1,-3.601309476E0,1.168183586E1
5.978858958E0,1.698640413E0,-1.109439003E1,-3.731674903E0,1.182777524E1
5.988815958E0,4.288406432E-1,-1.141271830E1,-2.847047893E0,1.177028993E1
5.998773958E0,-3.343568011E-1,-1.166081215E1,-1.677477585E0,1.178559568E1
6.008731958E0,-6.109264469E-1,-1.173530100E1,-7.720455971E-1,1.177652645E1
6.018689958E0,-5.295318894E-1,-1.142542430E1,-7.221241164E-1,1.146046193E1
6.028646958E0,3.656658635E-2,-1.090367725E1,-1.343168001E0,1.098615560E1
6.038604958E0,8.482788905E-1,-1.011129065E1,-2.081097287E0,1.035802788E1
6.048562958E0,1.340475212E0,-9.494028161E0,-2.866503918E0,1.000751164E1
6.058520958E0,1.295377830E0,-9.310474121E0,-3.358411168E0,9.982076820E0
6.068478958E0,8.086740178E-1,-9.335113118E0,-3.437111474E0,9.980582442E0
6.078435958E0,2.477696237E-1,-9.492272826E0,-3.243918007E0,1.003432296E1
6.088393958E0,-7.469825305E-2,-9.701035382E0,-3.004160239E0,1.015581833E1
6.098351958E0,-3.929127920E-1,-9.810832644E0,-2.685810336E0,1.017941034E1
6.108309958E0,-7.730589196E-1,-9.941997385E0,-2.244115174E0,1.022139839E1
6.118266958E0,-9.512060389E-1,-1.012128237E1,-1.907537747E0,1.034329977E1
6.128224958E0,-9.269764929E-1,-1.028968452E1,-1.892700437E0,1.050329510E1
6.138179333E0,-7.909467948E-1,-1.017126203E1,-2.146139229E0,1.042526171E1
6.148137333E0,-4.890708382E-1,-9.915020671E0,-2.533337464E0,1.024522444E1
6.158095333E0,4.116374038E-2,-9.691309124E0,-2.775088549E0,1.008088704E1
6.168052333E0,4.662479860E-1,-9.398626744E0,-2.864797993E0,9.836596942E0
6.178010333E0,6.161320037E-1,-8.997004305E0,-2.958544940E0,9.490979574E0
6.187968333E0,7.674621110E-1,-8.534628126E0,-2.985217599E0,9.074161088E0
6.197926333E0,9.169156274E-1,-7.959157441E0,-2.408044204E0,8.365859090E0
6.207883333E0,1.032067038E0,-7.237312236E0,-1.123802104E0,7.396403312E0
6.217841333E0,1.239179217E0,-6.108880307E0,6.765608579E-2,6.233663536E0
6.227799333E0,1.714205847E0,-4.119477448E0,8.716736734E-1,4.546252426E0
6.237757333E0,1.896031304E0,-1.026354747E0,1.940466927E0,2.900646594E0
6.247714333E0,1.866402000E0,3.244603593E0,2.895589723E0,4.732372423E0
6.257672333E0,2.030451775E0,8.319126654E0,3.423569908E0,9.222333415E0
6.267630333E0,2.502986614E0,1.368381311E1,3.943408429E0,1.445898175E1
6.277588333E0,3.290933714E0,1.880214761E1,5.119631406E0,1.976263204E1
6.287546333E0,3.787933596E0,2.248117360E1,7.374454587E0,2.396109738E1
6.297503333E0,3.131676025E0,2.515898787E1,9.675236882E0,2.713654867E1
6.307461333E0,2.530119449E0,2.567011871E1,1.167394266E1,2.831320251E1
6.317419333E0,1.962028973E0,2.382011114E1,1.249223593E1,2.696855967E1
6.327377333E0,1.641748686E-1,2.347962543E1,1.150311275E1,2.614653642E1
6.337334333E0,-7.745028895E-1,2.372050499E1,9.846915811E0,2.569482365E1
6.347292333E0,-5.557182793E-1,2.244345438E1,8.240432487E0,2.391489483E1
6.357250333E0,-6.812118611E-2,2.058302238E1,6.957984313E0,2.172737896E1
6.367208333E0,6.982619217E-1,1.842708848E1,6.116764108E0,1.942832888E1
6.377166333E0,1.547430539E0,1.579895450E1,5.451712325E0,1.678459627E1
6.387123333E0,2.408534347E0,1.247465569E1,4.911965788E0,1.362150800E1
6.397081333E0,2.868068341E0,8.688097656E0,4.721753232E0,1.029581519E1
6.407039333E0,2.493427001E0,4.867469062E0,4.254871773E0,6.929167849E0
6.416997333E0,1.656447197E0,1.445728163E0,3.141947829E0,3.834812042E0
6.426954333E0,1.041970906E0,-1.372089499E0,1.761549729E0,2.464019158E0
6.436912333E0,7.594422162E-1,-3.597793545E0,9.702694237E-2,3.678353586E0
6.446870333E0,5.556102519E-1,-5.171221974E0,-1.844312681E0,5.518308502E0
6.456828333E0,4.618429130E-1,-6.179694766E0,-3.769343836E0,7.253266797E0
6.466786333E0,2.583337151E-1,-6.916992407E0,-5.246965052E0,8.685744788E0
6.476743333E0,-2.738848237E-1,-7.621669017E0,-6.119940315E0,9.778472323E0
6.486701333E0,-8.902749820E-1,-8.354416355E0,-6.256038938E0,1.047506016E1
6.496659333E0,-1.403028286E0,-9.002136991E0,-5.849207214E0,1.082682704E1
6.506617333E0,-1.726079350E0,-9.605981875E0,-5.268969294E0,1.109127022E1
6.516574333E0,-1.918798607E0,-1.016621589E1,-4.732760030E0,1.137685154E1
6.526532333E0,-2.149172764E0,-1.050118065E1,-4.709543953E0,1.170784109E1
6.536490333E0,-2.556115000E0,-1.056207823E1,-4.965525699E0,1.194770547E1
6.546448333E0,-2.824154289E0,-1.053148560E1,-5.004935932E0,1.199739222E1
6.556405333E0,-2.923169870E0,-1.051195590E1,-4.764789031E0,1.190585375E1
6.566363333E0,-3.051532041E0,-1.042501365E1,-4.305194957E0,1.168449661E1
6.576321333E0,-3.029723973E0,-1.034967228E1,-3.637618639E0,1.138100228E1
6.586279333E0,-2.885821072E0,-1.025321310E1,-2.995602838E0,1.106480811E1
6.596237333E0,-2.575937061E0,-1.005008200E1,-2.325226581E0,1.063232235E1
6.606194333E0,-2.043299862E0,-9.889359580E0,-1.587934202E0,1.022233057E1
6.616152333E0,-1.434360591E0,-9.782336238E0,-1.136506349E0,9.952041964E0
6.626110333E0,-8.432787902E-1,-9.616507448E0,-9.798910171E-1,9.703016079E0
6.636068333E0,-3.407384522E-1,-9.416596992E0,-1.058599802E0,9.482037500E0
6.646025333E0,7.526243627E-2,-9.230951988E0,-1.331365396E0,9.326771835E0
6.655983333E0,4.766722559E-1,-8.989347961E0,-1.504142725E0,9.126775911E0
6.665941333E0,8.601985858E-1,-8.812000156E0,-1.675844458E0,9.011090001E0
6.675899333E0,1.294234699E0,-8.643121458E0,-1.879210618E0,8.939240714E0
6.685857333E0,1.762943413E0,-8.340332751E0,-1.841689620E0,8.721292366E0
6.695814333E0,2.307688442E0,-7.971206213E0,-1.550109733E0,8.442061041E0
6.705772333E0,2.914783793E0,-7.428900935E0,-1.182342965E0,8.067370609E0
6.715730333E0,3.602064059E0,-6.574435617E0,-6.183690754E-1,7.521997706E0
6.725688333E0,4.550440923E0,-5.126256301E0,3.921096039E-1,6.865767707E0
6.735645333E0,5.892826858E0,-2.965183284E0,2.093212279E0,6.920928979E0
6.745603333E0,7.783174376E0,-2.105997509E-1,4.346540911E0,8.917094455E0
6.755561333E0,9.997910800E0,2.987471700E0,7.220127854E0,1.268910768E1
6.765519333E0,1.228175254E1,6.588256096E0,1.033479462E1,1.735092343E1
6.775476333E0,1.404444716E1,9.657901057E0,1.307039926E1,2.147921986E1
6.785434333E0,1.460780183E1,1.129966356E1,1.494246137E1,2.375599761E1
6.795392333E0,1.375993801E1,1.181565929E1,1.618028418E1,2.430529355E1
6.805350333E0,1.136696384E1,1.214209414E1,1.605952865E1,2.312026767E1
6.815308333E0,8.018154092E0,1.227952709E1,1.372583121E1,2.008671260E1
6.825265333E0,3.681570404E0,1.204642784E1,1.067046924E1,1.650846141E1
6.835223333E0,-1.519804199E0,1.178832472E1,6.567330666E0,1.357955215E1
6.845181333E0,-6.848722072E0,1.276192121E1,8.415833169E-1,1.450792506E1
6.855139333E0,-1.123436302E1,1.558461896E1,-4.987817624E0,1.984866709E1
6.865096333E0,-1.296121654E1,1.743299634E1,-8.756156323E0,2.342163037E1
6.875054333E0,-1.255462105E1,1.746065367E1,-1.010299579E1,2.376054419E1
6.885012333E0,-1.124762685E1,1.594148272E1,-9.346908706E0,2.163341590E1
6.894970333E0,-9.016359758E0,1.269312404E1,-6.050787635E0,1.670395679E1
6.904928333E0,-6.355824012E0,9.636794947E0,-1.053962083E0,1.159202967E1
6.914885333E0,-3.839250222E0,6.499773690E0,4.074459735E0,8.578351964E0
6.924843333E0,-1.507907601E0,3.028485240E0,7.680162224E0,8.392282167E0
6.934801333E0,1.814961120E-2,-2.121428311E-2,8.632155590E0,8.632200738E0
6.944759333E0,4.443397115E-1,-2.326692477E0,7.435828131E0,7.804003823E0
6.954716333E0,-2.679559663E-2,-3.606873102E0,5.085872506E0,6.235090274E0
6.964674333E0,-7.483591112E-1,-4.174695629E0,2.498544777E0,4.922484226E0
6.974632333E0,-1.175350572E0,-4.932600612E0,2.692619419E-1,5.077844007E0
6.984590333E0,-1.741431214E0,-5.872213084E0,-1.128411756E0,6.228064087E0
6.994548333E0,-2.687173907E0,-6.685952545E0,-1.650080164E0,7.392268230E0
7.004505333E0,-3.610834590E0,-7.344088241E0,-1.821500062E0,8.384009841E0
7.014463333E0,-3.986176426E0,-7.950359720E0,-2.243556473E0,9.172315292E0
7.024421333E0,-3.742104582E0,-8.197419784E0,-2.695331065E0,9.405628494E0
7.034379333E0,-3.031545381E0,-8.193380527E0,-3.172822589E0,9.294544370E0
7.044336333E0,-2.458749504E0,-8.225429116E0,-3.612479997E0,9.314136836E0
7.054294333E0,-2.382932459E0,-8.434954149E0,-3.780569320E0,9.545654665E0
7.064252333E0,-2.525405716E0,-8.718352320E0,-3.508599825E0,9.731269903E0
7.074210333E0,-2.722971146E0,-9.069389327E0,-2.974486204E0,9.925520782E0
7.084168333E0,-2.872660744E0,-9.374290048E0,-2.628509377E0,1.015079087E1
7.094125333E0,-2.759944552E0,-9.587777739E0,-2.445410836E0,1.027242961E1
7.104083333E0,-2.450636785E0,-9.646136459E0,-2.198634654E0,1.019252489E1
7.114041333E0,-2.183640054E0,-9.715028354E0,-1.713473922E0,1.010376428E1
7.123999333E0,-1.884291264E0,-9.766800771E0,-1.272473702E0,1.002796790E1
7.133956083E0,-1.425611987E0,-9.803686177E0,-1.173570095E0,9.976066307E0
7.143914083E0,-7.712375119E-1,-9.793178730E0,-1.377913910E0,9.919667519E0
7.153872083E0,1.728349239E-2,-9.861660150E0,-1.637212197E0,9.996654611E0
7.163830083E0,8.111158150E-1,-1.013248330E1,-1.887899873E0,1.033872780E1
7.173787083E0,1.537454020E0,-1.051705116E1,-2.205503963E0,1.085524656E1
7.183745083E0,2.237806613E0,-1.094120936E1,-2.464377449E0,1.143638915E1
7.193703083E0,2.856931441E0,-1.109599334E1,-2.392528910E0,1.170501260E1
7.203661083E0,3.450818810E0,-1.100446220E1,-1.889334195E0,1.168657017E1
7.213619083E0,4.032113906E0,-1.099168954E1,-1.338028883E0,1.178412079E1
7.223576083E0,4.169615860E0,-1.087097026E1,-1.032845156E0,1.168890329E1
7.233534083E0,4.031860430E0,-1.023182749E1,-8.501842788E-1,1.103036743E1
7.243492083E0,3.926184578E0,-9.380224972E0,-2.277195212E-1,1.017130287E1
7.253450083E0,3.511470516E0,-8.242086080E0,8.604095972E-1,9.000150710E0
7.263407083E0,3.010162990E0,-6.067472080E0,2.091832629E0,7.088798376E0
7.273365083E0,3.042174449E0,-3.026731660E0,4.280126482E0,6.060974561E0
7.283323083E0,3.177738051E0,1.119994982E0,7.235930539E0,7.981923243E0
7.293281083E0,2.775681164E0,6.476586556E0,9.854346453E0,1.211440149E1
7.303239083E0,1.821558534E0,1.240830032E1,1.088552281E1,1.660658301E1
7.313196083E0,5.828887555E-1,1.776912820E1,1.126347748E1,2.104632038E1
7.323154083E0,-4.007380477E-1,2.225802514E1,1.269220252E1,2.562561763E1
7.333112083E0,-1.402449119E0,2.523249906E1,1.528254128E1,2.953306520E1
7.343070083E0,-2.813592464E0,2.634429332E1,1.744387333E1,3.172107832E1
7.353027083E0,-4.572173561E0,2.593250433E1,1.738943692E1,3.155617322E1
7.362985083E0,-6.141122439E0,2.534693843E1,1.567648574E1,3.042914520E1
7.372943083E0,-7.202430087E0,2.505446772E1,1.379059263E1,2.949206328E1
7.382901083E0,-7.588125295E0,2.398783033E1,1.133779676E1,2.759603748E1
7.392858083E0,-7.875490801E0,2.267346747E1,8.049984580E0,2.531623460E1
7.402816083E0,-7.531690308E0,2.085573184E1,4.498472332E0,2.262574116E1
7.412774083E0,-6.344519590E0,1.792750706E1,1.872966084E0,1.910906696E1
7.422732083E0,-4.982855092E0,1.426737927E1,9.152868855E-1,1.514016863E1
7.432690083E0,-3.788422716E0,9.964614415E0,8.711816302E-1,1.069601068E1
7.442647083E0,-2.907723573E0,5.491618402E0,6.802978134E-1,6.251042646E0
7.452605083E0,-2.105712165E0,1.362953224E0,5.321752694E-1,2.564152049E0
7.462563083E0,-1.341176731E0,-2.414103089E0,2.316489963E-1,2.771337223E0
7.472521083E0,-8.619968238E-1,-5.732182209E0,-4.056301206E-1,5.810807793E0
7.482478083E0,-6.451510772E-1,-8.198515552E0,-1.303811269E0,8.326571984E0
7.492436083E0,-4.617324007E-1,-9.956555783E0,-2.202877101E0,1.020778465E1
7.502394083E0,-6.020670747E-1,-1.110986177E1,-3.088670631E0,1.154692165E1
7.512352083E0,-1.264465940E0,-1.177274073E1,-3.712834005E0,1.240892560E1
7.522310083E0,-2.127944448E0,-1.253628067E1,-3.669741780E0,1.323455648E1
7.532267083E0,-2.905879068E0,-1.335556914E1,-3.347110546E0,1.407190496E1
7.542225083E0,-3.577451667E0,-1.379864892E1,-3.054857352E0,1.457851247E1
7.552183083E0,-4.121625130E0,-1.378867006E1,-2.927644744E0,1.468626295E1
7.562141083E0,-4.408890941E0,-1.352040916E1,-2.831636971E0,1.450027418E1
7.572098083E0,-4.244083660E0,-1.312945029E1,-2.534621805E0,1.402922018E1
7.582056083E0,-3.629812898E0,-1.266968606E1,-1.933800955E0,1.332051323E1
7.592014083E0,-2.786074590E0,-1.223238684E1,-1.316964288E0,1.261459053E1
7.601972083E0,-1.993368733E0,-1.180776672E1,-9.382142566E-1,1.201154111E1
7.611930083E0,-1.239581359E0,-1.139966732E1,-6.731992936E-1,1.148660847E1
7.621887083E0,-5.858907160E-1,-1.116526063E1,-2.234115851E-1,1.118285409E1
7.631845083E0,-4.292148650E-2,-1.123172944E1,3.105877233E-1,1.123610489E1
7.641803083E0,4.196388799E-1,-1.133867852E1,4.496600930E-1,1.135534771E1
7.651761083E0,6.480542198E-1,-1.124143815E1,1.649316810E-1,1.126131025E1
7.661718083E0,5.465719914E-1,-1.111659074E1,5.336753726E-3,1.113002063E1
7.671676083E0,2.227967504E-1,-1.117456004E1,4.212053490E-1,1.118471477E1
7.681634083E0,2.385424250E-1,-1.126716824E1,8.104466012E-1,1.129879668E1
7.691592083E0,5.315575111E-1,-1.103638098E1,6.695346974E-1,1.106944150E1
7.701549083E0,9.745678581E-1,-1.048795308E1,1.143642291E-2,1.053314165E1
7.711507083E0,1.591719397E0,-9.861633253E0,-8.940296254E-1,1.002919090E1
7.721465083E0,2.339361932E0,-9.256731192E0,-1.615308088E0,9.683434661E0
7.731423083E0,3.116064252E0,-8.541185194E0,-1.995012093E0,9.308156326E0
7.741381083E0,3.255922633E0,-7.764573213E0,-2.291624971E0,8.725891037E0
7.751338083E0,2.920743275E0,-7.145043758E0,-2.384060826E0,8.078746042E0
7.761296083E0,2.714941457E0,-6.659137799E0,-1.765652428E0,7.404900528E0
7.771254083E0,2.819300223E0,-5.911668341E0,-5.339151084E-1,6.571251149E0
7.781212083E0,3.116209555E0,-4.139294831E0,7.429821579E-1,5.234171011E0
7.791169083E0,3.642955100E0,-1.077471106E0,2.026737916E0,4.305778957E0
7.801127083E0,3.819790689E0,3.048985578E0,3.387904816E0,5.946848998E0
7.811085083E0,3.046690546E0,8.065585536E0,5.223179748E0,1.008055554E1
7.821043083E0,1.633324383E0,1.354972243E1,8.211345513E0,1.592761506E1
7.831001083E0,3.414906965E-1,1.814663263E1,1.135498289E1,2.140916926E1
7.840958083E0,-5.370862362E-1,2.124025878E1,1.371135116E1,2.528711540E1
7.850916083E0,-1.413373619E0,2.390090095E1,1.487015236E1,2.818460789E1
7.860874083E0,-1.486284597E0,2.524045829E1,1.544856244E1,2.963018491E1
7.870832083E0,-9.653085729E-1,2.486296906E1,1.479702825E1,2.894911219E1
7.880789083E0,-1.248528769E0,2.452336044E1,1.222215421E1,2.742872737E1
7.890747083E0,-1.957338921E0,2.455198607E1,9.469706082E0,2.638762075E1
7.900705083E0,-2.742024006E0,2.371328017E1,7.593778383E0,2.505002639E1
7.910663083E0,-3.770730503E0,2.214900731E1,5.981113383E0,2.325017528E1
7.920621083E0,-4.779685982E0,1.979078314E1,4.961847215E0,2.095567758E1
7.930578083E0,-5.547268692E0,1.688405973E1,4.907641772E0,1.843715300E1
7.940536083E0,-5.341077157E0,1.357859130E1,5.599963800E0,1.562897442E1
7.950494083E0,-4.622470726E0,9.983849416E0,6.209573454E0,1.263341946E1
7.960452083E0,-3.646440918E0,6.373944533E0,5.916232093E0,9.430031943E0
7.970409083E0,-2.205657160E0,2.915329923E0,4.840798742E0,6.066086426E0
7.980367083E0,-6.604250278E-1,-9.967748523E-2,3.422617396E0,3.487177463E0
7.990325083E0,3.357576478E-1,-2.676213301E0,2.003398755E0,3.359829966E0
8.000283083E0,8.203756119E-1,-5.039100628E0,7.623488671E-1,5.162046792E0
8.010240083E0,7.217400274E-1,-7.145923764E0,-3.830624995E-1,7.192487191E0
8.020198083E0,-7.401040122E-3,-8.890813022E0,-1.532511661E0,9.021929004E0
8.030156083E0,-1.021764098E0,-1.040514832E1,-2.684442088E0,1.079431993E1
8.040114083E0,-2.001097583E0,-1.166818900E1,-3.661049309E0,1.239170320E1
8.050072083E0,-2.860016140E0,-1.252620592E1,-4.165387446E0,1.350688638E1
8.060029083E0,-3.508206308E0,-1.299250967E1,-4.332431872E0,1.413799084E1
8.069987083E0,-3.784204242E0,-1.305364699E1,-4.344208165E0,1.426849838E1
8.079945083E0,-3.664333690E0,-1.294598688E1,-4.211099224E0,1.409820111E1
8.089903083E0,-3.208963937E0,-1.287642958E1,-3.837439924E0,1.381397240E1
8.099860083E0,-2.804713759E0,-1.278449030E1,-3.350139989E0,1.351047924E1
8.109818083E0,-2.560211852E0,-1.273231442E1,-2.917352475E0,1.331080241E1
8.119776083E0,-2.371968638E0,-1.271196845E1,-2.508186543E0,1.317237172E1
8.129734083E0,-2.163291744E0,-1.258369223E1,-2.111140281E0,1.294164034E1
8.139691833E0,-1.958932726E0,-1.231526761E1,-1.641139771E0,1.257762194E1
8.149649833E0,-1.741796665E0,-1.200205566E1,-1.050883963E0,1.217323099E1
8.159607833E0,-1.449413663E0,-1.167718436E1,-4.325584491E-1,1.177474167E1
8.169565833E0,-1.036312555E0,-1.123989215E1,3.933889747E-2,1.128763336E1
8.179523833E0,-5.871347111E-1,-1.072226388E1,2.709354150E-1,1.074174454E1
8.189480833E0,3.169220120E-2,-1.031710913E1,3.224675113E-1,1.032219601E1
8.199438833E0,6.962311837E-1,-9.988479241E0,2.482181051E-1,1.001579091E1
8.209396833E0,1.183223556E0,-9.622194450E0,-7.282356262E-2,9.694944419E0
8.219354833E0,1.544231527E0,-9.420928025E0,-4.656677230E-1,9.558000956E0
8.229311833E0,1.776688170E0,-9.309142710E0,-7.754209024E-1,9.508839910E0
8.239269833E0,1.735693926E0,-9.347126223E0,-7.090158284E-1,9.533315555E0
8.249227833E0,1.637369487E0,-9.389349552E0,-4.546479142E-1,9.541884959E0
8.259185833E0,1.624965496E0,-9.224080925E0,-3.365993544E-1,9.372165219E0
8.269143833E0,1.668600927E0,-8.590308237E0,-3.618824226E-1,8.758343653E0
8.279100833E0,2.055983642E0,-7.462710121E0,-2.723749995E-1,7.745534147E0
8.289058833E0,2.552214030E0,-5.772366614E0,1.381729218E-1,6.312931533E0
8.299016833E0,3.127117828E0,-3.602309350E0,1.317035624E0,4.948745437E0
8.308974833E0,3.778914558E0,-7.701291722E-1,3.205854972E0,5.015057356E0
8.318931833E0,3.958795085E0,2.657724990E0,5.442962551E0,7.236117880E0
8.328889833E0,3.242280787E0,6.819633343E0,7.458370317E0,1.061353247E1
8.338847833E0,2.151529777E0,1.208595853E1,8.718528906E0,1.505696583E1
8.348805833E0,1.325539815E0,1.785251535E1,9.950660620E0,2.048133313E1
8.358763833E0,1.280516547E0,2.209336754E1,1.308864608E1,2.571126734E1
8.368720833E0,1.262750951E0,2.502394057E1,1.751031641E1,3.056801142E1
8.378678833E0,2.055449791E-2,2.611526490E1,1.994613664E1,3.286116021E1
8.388636833E0,-3.104215454E0,2.429966234E1,1.804248437E1,3.042434857E1
8.398594833E0,-6.992690461E0,2.243270720E1,1.481899975E1,2.777997166E1
8.408551833E0,-9.282244933E0,2.083626062E1,1.338717919E1,2.644856129E1
8.418509833E0,-1.009050029E1,1.869641825E1,1.170003645E1,2.425417705E1
8.428467833E0,-9.907204113E0,1.726582795E1,7.961346638E0,2.143932248E1
8.438425833E0,-8.303619254E0,1.631851469E1,3.485465316E0,1.863846783E1
8.448383833E0,-5.544317603E0,1.501820620E1,6.443982482E-1,1.602189827E1
8.458340833E0,-2.687853061E0,1.291121934E1,4.327992082E-1,1.319512994E1
8.468298833E0,-2.545714338E-1,1.028655509E1,1.903059072E0,1.046420834E1
8.478256833E0,1.351156759E0,7.035752281E0,2.950946775E0,7.748259264E0
8.488214833E0,2.026798142E0,3.298968081E0,2.840982284E0,4.802320423E0
8.498171833E0,1.703206504E0,-2.273976320E-1,1.975183308E0,2.618009010E0
8.508129833E0,8.098422915E-1,-3.518738020E0,6.116751829E-1,3.662172623E0
8.518087833E0,-2.341409335E-1,-6.318125843E0,-9.612144256E-1,6.395112924E0
8.528045833E0,-1.123053295E0,-8.589294330E0,-2.225520152E0,8.943722141E0
8.538002833E0,-1.743102348E0,-1.042087265E1,-3.245797595E0,1.105297221E1
8.547960833E0,-2.166869070E0,-1.181409106E1,-4.053558570E0,1.267672696E1
8.557918833E0,-2.625744814E0,-1.268639039E1,-4.500231174E0,1.371463151E1
8.567876833E0,-2.989195752E0,-1.310378102E1,-4.547956148E0,1.418901946E1
8.577834833E0,-3.251278482E0,-1.339536061E1,-4.403858535E0,1.447067613E1
8.587791833E0,-3.442004132E0,-1.357979466E1,-4.153311777E0,1.461192027E1
8.597749833E0,-3.549933793E0,-1.373091828E1,-3.792994069E0,1.468083618E1
8.607707833E0,-3.640064529E0,-1.368299918E1,-3.088146428E0,1.449176265E1
8.617665833E0,-3.514909263E0,-1.351375620E1,-2.154020691E0,1.412855261E1
8.627622833E0,-3.230334633E0,-1.329732035E1,-1.349022818E0,1.375040555E1
8.637580833E0,-2.807694962E0,-1.295115465E1,-8.133460893E-1,1.327693827E1
8.647538833E0,-2.221239697E0,-1.246638656E1,-3.935620522E-1,1.266884331E1
8.657496833E0,-1.526329984E0,-1.186656866E1,-4.893008530E-2,1.196442765E1
8.667453833E0,-9.392736259E-1,-1.125480723E1,1.387310386E-1,1.129478495E1
8.677411833E0,-4.816535720E-1,-1.073901147E1,1.153842759E-1,1.075042655E1
8.687369833E0,-1.648792022E-1,-1.037064156E1,1.806438804E-2,1.037196789E1
8.697327833E0,-7.363778740E-2,-1.001974196E1,-2.072650838E-1,1.002215597E1
8.707285833E0,6.896264613E-2,-9.757517731E0,-4.943399835E-1,9.770275336E0
8.717242833E0,2.807477738E-1,-9.523230325E0,-6.989372751E-1,9.552970661E0
8.727200833E0,4.311619878E-1,-9.381457565E0,-8.124814323E-1,9.426440090E0
8.737158833E0,3.423208550E-1,-9.316334785E0,-8.958983955E-1,9.365570529E0
8.747116833E0,1.449460441E-1,-9.087309288E0,-1.179034611E0,9.164623400E0
8.757073833E0,2.123385666E-1,-8.706872481E0,-1.478647695E0,8.834088242E0
8.767031833E0,3.908626851E-1,-8.223639284E0,-1.596900030E0,8.386364314E0
8.776989833E0,2.010724439E-1,-7.573682672E0,-1.839510071E0,7.796466934E0
8.786947833E0,-2.426335756E-1,-6.724619597E0,-2.344856853E0,7.125849664E0
8.796905833E0,-4.847632675E-1,-5.618222900E0,-2.531049449E0,6.181070724E0
8.806862833E0,-7.318933520E-1,-3.806706959E0,-2.274085663E0,4.494235347E0
8.816820833E0,-9.361122557E-1,-9.571196204E-1,-1.690920334E0,2.156755828E0
8.826778833E0,-1.313514431E0,3.085728897E0,-7.909505224E-1,3.445670575E0
8.836736833E0,-2.659243805E0,8.587381121E0,3.108388612E-1,8.995071591E0
8.846693833E0,-3.884181397E0,1.533607955E1,2.255503796E0,1.598028468E1
8.856651833E0,-3.837978453E0,2.166459590E1,5.187060328E0,2.260509652E1
8.866609833E0,-2.342058229E0,2.597116378E1,8.344761432E0,2.737921891E1
8.876567833E0,-7.944373633E-1,2.969695112E1,1.194034648E1,3.201736889E1
8.886525833E0,8.757556146E-1,3.203609700E1,1.557960673E1,3.563428973E1
8.896482833E0,2.792513544E0,3.068368280E1,1.740984487E1,3.538911161E1
8.906440833E0,2.490663315E0,2.837771636E1,1.652512021E1,3.293292862E1
8.916398833E0,7.169885800E-1,2.641096795E1,1.419921594E1,2.999451673E1
8.926356833E0,-9.994754619E-1,2.414952923E1,1.207353085E1,2.701793591E1
8.936313833E0,-2.527006684E0,2.181518977E1,1.014682535E1,2.419186500E1
8.946271833E0,-3.671691241E0,1.909506037E1,7.848448014E0,2.096904345E1
8.956229833E0,-4.219148794E0,1.594630667E1,5.312984794E0,1.732956204E1
8.966187833E0,-4.075383010E0,1.240321675E1,3.272315010E0,1.345944197E1
8.976145833E0,-3.604984451E0,8.360260647E0,1.906972614E0,9.301957618E0
8.986102833E0,-2.872351134E0,4.211571679E0,8.974876687E-1,5.176216877E0
8.996060833E0,-1.666800423E0,4.111966699E-1,2.383442044E-1,1.733238100E0
9.006018833E0,-3.099334198E-1,-3.059524015E0,-7.406375706E-2,3.076074018E0
9.015976833E0,5.897397919E-1,-6.471198347E0,-4.188828349E-1,6.511502430E0
9.025933833E0,7.396982154E-1,-9.464572812E0,-1.144169710E0,9.562134505E0
9.035891833E0,2.144097235E-1,-1.158508486E1,-2.334423227E0,1.181988556E1
9.045849833E0,-5.881375452E-1,-1.298665310E1,-3.801778926E0,1.354446704E1
9.055807833E0,-1.499434400E0,-1.381128125E1,-5.161783399E0,1.482038465E1
9.065764833E0,-2.305071521E0,-1.422867187E1,-5.925326267E0,1.558454200E1
9.075722833E0,-3.090094136E0,-1.447636811E1,-6.268903981E0,1.607523165E1
9.085680833E0,-3.726432582E0,-1.453468707E1,-6.212310535E0,1.623995783E1
9.095638833E0,-3.952182761E0,-1.457451714E1,-5.802289740E0,1.617723291E1
9.105596833E0,-3.737182980E0,-1.466103254E1,-5.013520814E0,1.593887708E1
9.115553833E0,-3.160427954E0,-1.456205789E1,-4.215397512E0,1.548584550E1
9.125511833E0,-2.371481565E0,-1.436449217E1,-3.748942316E0,1.503386605E1
9.135469458E0,-1.433593729E0,-1.415425202E1,-3.328341861E0,1.461081451E1
9.145427458E0,-4.890578281E-1,-1.377063959E1,-2.941269341E0,1.408973944E1
9.155384458E0,1.757018868E-1,-1.327219252E1,-2.798142366E0,1.356508629E1
9.165342458E0,7.323504581E-1,-1.283599023E1,-2.737216718E0,1.314501190E1
9.175300458E0,1.186574011E0,-1.239865359E1,-2.691439451E0,1.274277893E1
9.185258458E0,1.617951614E0,-1.197596772E1,-2.476644323E0,1.233593683E1
9.195215458E0,1.957787841E0,-1.158882240E1,-2.097709665E0,1.193876559E1
9.205173458E0,2.108149284E0,-1.122015429E1,-1.746302530E0,1.154927392E1
9.215131458E0,2.274941695E0,-1.093078143E1,-1.483950535E0,1.126319012E1
9.225089458E0,2.484837149E0,-1.066886944E1,-1.257201944E0,1.102632067E1
9.235047458E0,2.530356261E0,-1.020560858E1,-1.175573790E0,1.058012868E1
9.245004458E0,2.661398796E0,-9.672147213E0,-1.244466269E0,1.010851975E1
9.254962458E0,2.973470835E0,-9.244450870E0,-1.301407771E0,9.797707022E0
9.264920458E0,3.191675767E0,-8.745525500E0,-1.026043090E0,9.366097101E0
9.274878458E0,3.392970843E0,-8.162327135E0,-4.624130166E-1,8.851534398E0
9.284835458E0,3.791098694E0,-7.374867400E0,1.434465256E-1,8.293471853E0
9.294793458E0,4.210535260E0,-6.256241251E0,9.261749858E-1,7.597826128E0
9.304751458E0,4.606996070E0,-4.739074731E0,2.018198057E0,6.910598056E0
9.314709458E0,5.015421744E0,-2.765158807E0,3.344301251E0,6.632111983E0
9.324667458E0,5.289820465E0,-1.746563315E-1,4.988350890E0,7.272987693E0
9.334624458E0,5.486952909E0,3.186343106E0,7.079354968E0,9.506666155E0
9.344582458E0,5.672676265E0,7.194080848E0,9.068529786E0,1.289078305E1
9.354540458E0,5.854397203E0,1.164088952E1,1.002242467E1,1.643877342E1
9.364498458E0,5.759045488E0,1.588246092E1,1.016290987E1,1.971557524E1
9.374455458E0,5.468125459E0,1.998122695E1,1.044973217E1,2.320230008E1
9.384413458E0,4.555447601E0,2.341679359E1,1.137795427E1,2.643021317E1
9.394371458E0,2.643205184E0,2.527993635E1,1.264147676E1,2.838782574E1
9.404329458E0,5.532696846E-1,2.518513427E1,1.326986299E1,2.847255450E1
9.414286458E0,-1.276046935E0,2.365214636E1,1.299041520E1,2.701487017E1
9.424244458E0,-3.370658161E0,2.231765270E1,1.313220784E1,2.611309712E1
9.434202458E0,-5.182335777E0,2.056948491E1,1.352139617E1,2.515528708E1
9.444160458E0,-6.612611504E0,1.790716342E1,1.274010876E1,2.295002187E1
9.454118458E0,-7.412460904E0,1.551192872E1,1.047937638E1,2.013409642E1
9.464075458E0,-6.974588066E0,1.351070162E1,7.617599940E0,1.700622726E1
9.474033458E0,-5.299595840E0,1.141204587E1,5.504886904E0,1.373405573E1
9.483991458E0,-3.069412242E0,9.082042701E0,4.582407358E0,1.062559402E1
9.493949458E0,-9.469033653E-1,6.836853393E0,4.266312727E0,8.114222981E0
9.503906458E0,5.849261447E-1,4.580773062E0,3.857880329E0,6.017379917E0
9.513864458E0,1.129838696E0,2.048229942E0,3.282503783E0,4.030708680E0
9.523822458E0,8.829274439E-1,-5.117032903E-1,2.623564679E0,2.815047558E0
9.533780458E0,1.752631994E-1,-2.867393864E0,1.796631561E0,3.388295992E0
9.543738458E0,-7.260113454E-1,-5.033324164E0,1.105403255E0,5.204167654E0
9.553695458E0,-1.785258142E0,-6.948372660E0,4.428341997E-1,7.187706963E0
9.563653458E0,-2.810113663E0,-8.477233027E0,-3.890114567E-1,8.939325953E0
9.573611458E0,-3.628405766E0,-9.665692472E0,-1.197410655E0,1.039349468E1
9.583569458E0,-4.239504413E0,-1.051543149E1,-1.963406723E0,1.150663561E1
9.593526458E0,-4.471408786E0,-1.118442429E1,-2.471943161E0,1.229615169E1
9.603484458E0,-4.511452273E0,-1.172226873E1,-2.524266386E0,1.281158486E1
9.613442458E0,-4.411684449E0,-1.216669688E1,-2.084843598E0,1.310870114E1
9.623400458E0,-4.252341098E0,-1.253931421E1,-1.383417310E0,1.331280019E1
9.633357458E0,-4.268042918E0,-1.288577811E1,-7.786889112E-1,1.359653721E1
9.643315458E0,-4.270841981E0,-1.307014198E1,-2.844167554E-1,1.375316675E1
9.653273458E0,-4.257686330E0,-1.310374242E1,5.672617793E-2,1.377821383E1
9.663231458E0,-4.107089537E0,-1.310491771E1,3.754950330E-1,1.373856067E1
9.673189458E0,-3.823484960E0,-1.300504376E1,6.607432625E-1,1.357154310E1
9.683146458E0,-3.383153368E0,-1.271867170E1,7.961660926E-1,1.318499969E1
9.693104458E0,-2.776068542E0,-1.234436102E1,8.238573365E-1,1.267945371E1
9.703062458E0,-2.265669473E0,-1.195085042E1,5.700754595E-1,1.217707149E1
9.713020458E0,-1.818971433E0,-1.164270333E1,1.536624885E-1,1.178493997E1
9.722977458E0,-1.483652327E0,-1.139949775E1,-2.663093904E-1,1.149872575E1
9.732935458E0,-1.207445062E0,-1.123204986E1,-5.193017471E-1,1.130869321E1
9.742893458E0,-9.078854799E-1,-1.094071936E1,-7.411205506E-1,1.100331113E1
9.752851458E0,-5.480136956E-1,-1.066307836E1,-8.022059740E-1,1.070724491E1
9.762809458E0,-2.574105129E-1,-1.044079178E1,-5.745731378E-1,1.045975752E1
9.772766458E0,-7.166289032E-2,-1.023062764E1,1.387895107E-2,1.023088804E1
9.782724458E0,-4.880327381E-2,-9.808577372E0,4.495248762E-1,9.818994065E0
9.792682458E0,1.408804750E-1,-9.288978587E0,5.665437412E-1,9.307305856E0
9.802640458E0,4.634196147E-1,-8.662798508E0,5.467123246E-1,8.692394958E0
9.812597458E0,8.272155386E-1,-7.672748539E0,8.342058849E-1,7.762168199E0
9.822555458E0,1.471219684E0,-6.039431173E0,1.478172609E0,6.389382639E0
9.832513458E0,2.035121946E0,-3.753920635E0,2.582263164E0,4.990162775E0
9.842471458E0,2.154839301E0,-5.718951130E-1,3.940668716E0,4.527611552E0
9.852428458E0,1.994105482E0,3.596899506E0,5.683211194E0,7.015200083E0
9.862386458E0,1.464878964E0,8.370464038E0,7.586285176E0,1.139132395E1
9.872344458E0,5.273580408E-1,1.374285128E1,9.104600675E0,1.649356909E1
9.882302458E0,-7.197168177E-1,1.912429177E1,9.873159285E0,2.153452582E1
9.892260458E0,-1.884011767E0,2.339379064E1,1.060123470E1,2.575276913E1
9.902217458E0,-2.972353432E0,2.662750672E1,1.184548243E1,2.929461474E1
9.912175458E0,-4.203173031E0,2.827166190E1,1.279041587E1,3.131370735E1
9.922133458E0,-4.587701720E0,2.736122236E1,1.272138598E1,3.052076600E1
9.932091458E0,-5.059809127E0,2.528031525E1,1.137385888E1,2.817908219E1
9.942048458E0,-5.524145878E0,2.372858584E1,1.024988720E1,2.643146158E1
9.952006458E0,-5.340318189E0,2.155218902E1,9.473695638E0,2.414056253E1
9.961964458E0,-4.821730094E0,1.898087711E1,8.194475126E0,2.122904142E1
9.971922458E0,-4.360780343E0,1.644449646E1,6.034968578E0,1.805155713E1
9.981880458E0,-3.887321644E0,1.375287224E1,3.453125244E0,1.470295339E1
9.991837458E0,-3.446603844E0,1.088258049E1,1.467626424E0,1.150928163E1
1.000179546E1,-2.812592590E0,7.776218528E0,3.815685359E-1,8.278033959E0
1.001175346E1,-1.758833113E0,4.408355629E0,7.401931822E-2,4.746848652E0
1.002171146E1,-7.107297935E-1,1.052744985E0,1.256524251E-1,1.276400163E0
1.003166846E1,-2.087124889E-1,-2.063658990E0,-1.121495962E-2,2.074216745E0
1.004162646E1,1.629513022E-1,-4.991136503E0,-5.618256229E-1,5.025300464E0
1.005158446E1,4.162339000E-1,-7.456943597E0,-1.567038738E0,7.631177424E0
1.006154246E1,4.395460910E-1,-9.164400149E0,-2.847862410E0,9.606755496E0
1.007149946E1,2.724103386E-1,-1.028097334E1,-4.104764684E0,1.107346889E1
1.008145746E1,-2.094287363E-1,-1.119972646E1,-5.217016783E0,1.235698172E1
1.009141546E1,-8.158178535E-1,-1.194238599E1,-5.901846773E0,1.334608322E1
1.010137346E1,-1.451961003E0,-1.241508543E1,-6.033837141E0,1.387983169E1
1.011133146E1,-2.065052089E0,-1.276175632E1,-5.717447811E0,1.413563136E1
1.012128846E1,-2.409846901E0,-1.316580360E1,-4.978749177E0,1.428053535E1
1.013124646E1,-2.364549106E0,-1.334459041E1,-4.044227291E0,1.414301806E1
1.014120821E1,-2.183558193E0,-1.331207872E1,-3.231395318E0,1.387159983E1
1.015116621E1,-2.051986924E0,-1.316427865E1,-2.723406179E0,1.359874347E1
1.016112321E1,-1.767062630E0,-1.289939393E1,-2.191370512E0,1.320299128E1
1.017108121E1,-1.243753932E0,-1.260875574E1,-1.405907455E0,1.274771434E1
1.018103921E1,-7.438729081E-1,-1.225635575E1,-5.813744728E-1,1.229266445E1
1.019099721E1,-2.081861664E-1,-1.194585339E1,5.101754129E-2,1.194777626E1
1.020095521E1,2.151867271E-1,-1.166052681E1,3.440475377E-1,1.166758585E1
1.021091221E1,5.282874557E-1,-1.139002058E1,3.776260507E-1,1.140851690E1
1.022087021E1,9.246348292E-1,-1.114449600E1,3.637400830E-1,1.118870177E1
1.023082821E1,1.397355464E0,-1.089784757E1,2.952893606E-1,1.099103634E1
1.024078621E1,1.780983974E0,-1.057103266E1,4.213240474E-2,1.072009377E1
1.025074321E1,2.141226837E0,-1.024437796E1,-3.972770807E-1,1.047329753E1
1.026070121E1,2.401740175E0,-1.006095548E1,-7.992045982E-1,1.037448355E1
1.027065921E1,2.589837062E0,-9.898925625E0,-1.151558837E0,1.029670201E1
1.028061721E1,2.828622439E0,-9.693666136E0,-1.211467069E0,1.017034515E1
1.029057421E1,3.147279612E0,-9.342787004E0,-1.243478236E0,9.936763864E0
1.030053221E1,3.629905284E0,-8.838465824E0,-9.927206853E-1,9.606257588E0
1.031049021E1,3.905338377E0,-8.240904942E0,-2.610290623E-1,9.123174792E0
1.032044821E1,4.071306331E0,-7.260777113E0,9.908130312E-1,8.383085947E0
1.033040621E1,4.347438167E0,-5.377043965E0,2.673990190E0,7.413706492E0
1.034036321E1,4.687671566E0,-2.518174172E0,4.727856263E0,7.118152198E0
1.035032121E1,5.106695026E0,1.289083595E0,7.226415365E0,8.942099845E0
1.036027921E1,5.508204614E0,5.992739401E0,9.560526790E0,1.255615053E1
1.037023721E1,5.774381565E0,1.113544684E1,1.102200384E1,1.669809054E1
1.038019421E1,5.592736641E0,1.578537726E1,1.158672559E1,2.036440641E1
1.039015221E1,4.880235288E0,1.966728760E1,1.224697330E1,2.367714622E1
1.040011021E1,3.127255822E0,2.308368473E1,1.377446718E1,2.706237565E1
1.041006821E1,3.169907168E-1,2.540381078E1,1.579163378E1,2.991370561E1
1.042002621E1,-2.400524392E0,2.544149492E1,1.693590348E1,3.065708740E1
1.042998321E1,-4.503770494E0,2.375109060E1,1.666443480E1,2.936156741E1
1.043994121E1,-6.895600369E0,2.270549618E1,1.570101598E1,2.845365994E1
1.044989921E1,-8.224205879E0,2.175421734E1,1.500669186E1,2.767822854E1
1.045985721E1,-8.042798352E0,2.019855860E1,1.393117139E1,2.582142349E1
1.046981421E1,-7.331531346E0,1.855494136E1,1.198273529E1,2.327279841E1
1.047977221E1,-6.407861307E0,1.646992717E1,9.537257795E0,2.008179459E1
1.048973021E1,-5.215422832E0,1.362407796E1,7.273921069E0,1.630110620E1
1.049968821E1,-3.938973024E0,1.026985544E1,5.622938679E0,1.235325377E1
1.050964621E1,-2.779920395E0,6.626274108E0,4.493074182E0,8.474855843E0
1.051960321E1,-1.882335078E0,2.801341377E0,3.369853292E0,4.769340632E0
1.052956121E1,-1.393051182E0,-5.750567025E-1,2.040300533E0,2.536554370E0
1.053951921E1,-1.070096890E0,-3.338682954E0,4.772965193E-1,3.538322087E0
1.054947721E1,-1.144465579E0,-5.605226879E0,-8.620865786E-1,5.785461355E0
1.055943421E1,-1.473788659E0,-7.549628981E0,-1.958230329E0,7.937481766E0
1.056939221E1,-1.844111537E0,-9.358249966E0,-2.725847099E0,9.920072187E0
1.057935021E1,-2.541744883E0,-1.079981667E1,-3.285289689E0,1.157106890E1
1.058930821E1,-3.309028215E0,-1.184634431E1,-3.593908070E0,1.281412176E1
1.059926521E1,-3.850221353E0,-1.262318667E1,-3.626281765E0,1.368645190E1
1.060922321E1,-4.119197951E0,-1.314081026E1,-3.445909195E0,1.419587885E1
1.061918121E1,-4.203418029E0,-1.333364091E1,-3.078225750E0,1.431538252E1
1.062913921E1,-4.157176786E0,-1.329667715E1,-2.620188789E0,1.417565277E1
1.063909621E1,-4.118902082E0,-1.314797778E1,-2.197640189E0,1.395221475E1
1.064905421E1,-3.965789232E0,-1.293210326E1,-1.890497937E0,1.365799258E1
1.065901221E1,-3.701601211E0,-1.263928522E1,-1.558235170E0,1.326203149E1
1.066897021E1,-3.298523692E0,-1.227984167E1,-1.165143527E0,1.276841139E1
1.067892821E1,-2.739888310E0,-1.184573620E1,-8.140797687E-1,1.218569571E1
1.068888521E1,-2.258091189E0,-1.144723442E1,-4.284757769E-1,1.167569026E1
1.069884321E1,-1.882302334E0,-1.114720676E1,-1.096528351E-1,1.130554309E1
1.070880121E1,-1.489841605E0,-1.085556636E1,-9.601128101E-4,1.095732403E1
1.071875921E1,-1.098313506E0,-1.052859006E1,-5.916095853E-2,1.058588689E1
1.072871621E1,-6.430987045E-1,-1.019455968E1,-2.759803927E-1,1.021855118E1
1.073867421E1,-1.712307402E-1,-9.945118629E0,-3.569134587E-1,9.952994108E0
1.074863221E1,2.673367096E-1,-9.830061797E0,-2.865828565E-1,9.837871395E0
1.075859021E1,5.274597458E-1,-9.794014297E0,-1.438036443E-1,9.809261406E0
1.076854821E1,6.063687981E-1,-9.741238498E0,-1.818029447E-1,9.761785846E0
1.077850521E1,6.830313867E-1,-9.714600922E0,-3.503705706E-1,9.744883914E0
1.078846321E1,7.447212660E-1,-9.602929628E0,-4.550531262E-1,9.642506965E0
1.079842121E1,9.199219733E-1,-9.449297546E0,-5.323267123E-1,9.508882809E0
1.080837921E1,1.001764281E0,-9.073763044E0,-4.467373623E-1,9.139818473E0
1.081833621E1,1.107895046E0,-8.461060798E0,-8.175650015E-2,8.533678303E0
1.082829421E1,1.270761929E0,-7.409346092E0,6.326539694E-1,7.544103421E0
1.083825221E1,1.563574848E0,-5.598048837E0,1.411984320E0,5.981355766E0
1.084821021E1,2.112213684E0,-2.725753251E0,2.582057342E0,4.307922649E0
1.085816721E1,2.600951158E0,1.351062326E0,3.984650595E0,4.946489331E0
1.086812521E1,2.572543045E0,6.474735913E0,5.639782169E0,8.963666982E0
1.087808321E1,2.144921108E0,1.247280797E1,7.691407589E0,1.480977299E1
1.088804121E1,1.318396564E0,1.814765005E1,9.732539595E0,2.063486610E1
1.089799921E1,8.919168802E-1,2.208206838E1,1.142980621E1,2.488079038E1
1.090795621E1,6.320500982E-1,2.508893354E1,1.274743883E1,2.814873479E1
1.091791421E1,-4.064570631E-1,2.741052374E1,1.348295658E1,3.054983040E1
1.092787221E1,-6.355519956E-1,2.705984049E1,1.374736065E1,3.035834018E1
1.093783021E1,-7.531346785E-1,2.526870502E1,1.276907938E1,2.832179467E1
1.094778721E1,-1.284004265E0,2.378303511E1,1.142783569E1,2.641735897E1
1.095774521E1,-1.573117357E0,2.178629049E1,1.002038984E1,2.403175740E1
1.096770321E1,-1.981846795E0,1.944896426E1,7.803889892E0,2.104971793E1
1.097766121E1,-2.633586807E0,1.711686545E1,5.383103435E0,1.813561868E1
1.098761921E1,-3.219185162E0,1.442498395E1,3.227341443E0,1.512808804E1
1.099757621E1,-3.284965169E0,1.108992276E1,1.978102530E0,1.173414985E1
1.100753421E1,-2.840849844E0,7.278450907E0,2.001847488E0,8.065585460E0
1.101749221E1,-2.054624749E0,3.395311484E0,2.360484121E0,4.617521870E0
1.102745021E1,-8.248578682E-1,-1.069964451E-1,2.148476946E0,2.303864564E0
1.103740721E1,2.493128135E-1,-2.839388040E0,1.374365820E0,3.164358186E0
1.104736521E1,7.694546959E-1,-5.369001120E0,6.406940371E-1,5.461567761E0
1.105732321E1,6.793309763E-1,-7.631016961E0,-1.169238478E-2,7.661204027E0
1.106728121E1,-1.373368431E-2,-9.465548712E0,-7.220185742E-1,9.493055981E0
1.107723821E1,-1.172071162E0,-1.093387929E1,-1.349742171E0,1.107904648E1
1.108719621E1,-2.673949260E0,-1.204623956E1,-1.783942372E0,1.246773205E1
1.109715421E1,-4.062165671E0,-1.276608209E1,-2.187666301E0,1.357423758E1
1.110711221E1,-4.980061292E0,-1.316808752E1,-2.546812665E0,1.430684432E1
1.111707021E1,-5.258172995E0,-1.328856823E1,-2.535578409E0,1.451425461E1
1.112702721E1,-5.053535650E0,-1.308720299E1,-2.118990753E0,1.418813682E1
1.113698137E1,-4.445791258E0,-1.265396875E1,-1.455500761E0,1.349097726E1
1.114693938E1,-3.509351485E0,-1.218987290E1,-7.421549231E-1,1.270666531E1
1.115689737E1,-2.604210103E0,-1.174479688E1,-9.112359345E-2,1.203039765E1
1.116685437E1,-1.806948973E0,-1.137794725E1,5.952961086E-1,1.153590593E1
1.117681237E1,-1.216265587E0,-1.105958741E1,1.166243534E0,1.118722037E1
1.118677038E1,-8.918240556E-1,-1.078808949E1,1.539081885E0,1.093375498E1
1.119672837E1,-8.844103709E-1,-1.061855766E1,1.641860733E0,1.078107857E1
1.120668637E1,-9.611685249E-1,-1.048500725E1,1.447229143E0,1.062796755E1
1.121664337E1,-1.069123621E0,-1.031041992E1,1.083892518E0,1.042221700E1
1.122660138E1,-1.089729501E0,-1.015863906E1,6.825109845E-1,1.023969137E1
1.123655937E1,-1.084670198E0,-1.007650673E1,3.175833321E-1,1.013969213E1
1.124651737E1,-1.084128746E0,-1.008298428E1,4.219935536E-2,1.014118770E1
1.125647437E1,-9.152333835E-1,-1.006510817E1,-1.979680109E-1,1.010857290E1
1.126643238E1,-5.546291623E-1,-1.001027649E1,-4.292569649E-1,1.003481492E1
1.127639037E1,-1.330981234E-1,-9.808897800E0,-6.927196383E-1,9.834228575E0
1.128634837E1,3.232577625E-1,-9.510429600E0,-1.019091920E0,9.570335162E0
1.129630537E1,6.849887422E-1,-9.163440621E0,-1.257111897E0,9.274598854E0
1.130626338E1,7.947778174E-1,-8.689301013E0,-1.371078223E0,8.832637170E0
1.131622137E1,9.262287802E-1,-8.211130920E0,-1.242943801E0,8.356164194E0
1.132617937E1,1.058731949E0,-7.528145142E0,-5.923165137E-1,7.625268616E0
1.133613738E1,1.282838184E0,-6.333613948E0,5.662262374E-1,6.486983243E0
1.134609437E1,1.299728743E0,-4.280096369E0,2.016195386E0,4.906481791E0
1.135605237E1,1.300882691E0,-1.300435964E0,3.638308025E0,4.076851084E0
1.136601038E1,1.366362736E0,2.736729645E0,5.312925153E0,6.130563592E0
1.137596838E1,1.143472137E0,7.903707710E0,7.224323816E0,1.076879653E1
1.138592537E1,9.757903647E-1,1.370647692E1,9.723532544E0,1.683350117E1
1.139588337E1,7.414728454E-1,1.914484473E1,1.243597169E1,2.284137153E1
1.140584138E1,6.204416209E-1,2.296893429E1,1.502348974E1,2.745290758E1
1.141579937E1,-3.569731003E-1,2.602518504E1,1.692280572E1,3.104543508E1
1.142575737E1,-2.207869162E0,2.799952313E1,1.799438400E1,3.335634628E1
1.143571437E1,-3.234058725E0,2.700462173E1,1.811901039E1,3.268038047E1
1.144567238E1,-4.091578920E0,2.488887457E1,1.707600979E1,3.045959956E1
1.145563037E1,-5.254862886E0,2.359746086E1,1.485053027E1,2.837238080E1
1.146558837E1,-5.874999282E0,2.173491919E1,1.164156429E1,2.534656481E1
1.147554537E1,-6.334847710E0,1.954716474E1,7.939751701E0,2.202865411E1
1.148550338E1,-6.479775628E0,1.717863076E1,3.803712892E0,1.874996210E1
1.149546137E1,-5.942847449E0,1.465818144E1,-1.483428378E-1,1.581776610E1
1.150541937E1,-4.947146730E0,1.184971932E1,-2.871950600E0,1.315819931E1
1.151537637E1,-4.189228883E0,8.556383277E0,-3.781954526E0,1.025009822E1
1.152533438E1,-3.719875514E0,4.688935441E0,-3.582113652E0,6.975322762E0
1.153529237E1,-3.196313778E0,9.971958518E-1,-2.892046603E0,4.424336661E0
1.154525037E1,-2.770661914E0,-2.067914593E0,-2.486683407E0,4.258689068E0
1.155520838E1,-2.433166766E0,-4.732247522E0,-2.778848893E0,6.003038255E0
1.156516538E1,-1.779255390E0,-6.869574412E0,-3.348156613E0,7.846461308E0
1.157512337E1,-1.090888785E0,-8.310319578E0,-3.730014879E0,9.174119076E0
1.158508138E1,-7.079490770E-1,-9.357621975E0,-3.822248273E0,1.013290989E1
1.159503938E1,-6.960988174E-1,-1.020701191E1,-3.775779281E0,1.090523520E1
1.160499637E1,-1.104355727E0,-1.081808337E1,-3.642823538E0,1.146824715E1
1.161495437E1,-1.570662989E0,-1.131098961E1,-3.368387395E0,1.190594397E1
1.162491238E1,-2.123566053E0,-1.167051619E1,-2.885793298E0,1.220812369E1
1.163487037E1,-2.680121288E0,-1.171778275E1,-2.181596745E0,1.221674453E1
1.164482837E1,-2.913726909E0,-1.139151279E1,-1.674833474E0,1.187692870E1
1.165478537E1,-2.812802797E0,-1.089508184E1,-1.431613715E0,1.134302366E1
1.166474338E1,-2.482554104E0,-1.036693326E1,-1.054775138E0,1.071209273E1
1.167470137E1,-1.900238668E0,-9.893207048E0,-3.902870268E-1,1.008160586E1
1.168465937E1,-1.238537047E0,-9.476031016E0,3.164571583E-1,9.561866081E0
1.169461637E1,-6.749669069E-1,-9.178210688E0,7.275216812E-1,9.231707293E0
1.170457438E1,-2.216632676E-1,-9.145426519E0,7.409872341E-1,9.178072940E0
1.171453237E1,8.719294891E-3,-9.211891235E0,3.756144623E-1,9.219550009E0
1.172449037E1,6.700061291E-2,-9.322323503E0,-9.732748926E-2,9.323072306E0
1.173444737E1,1.518953137E-2,-9.446841130E0,-4.429162069E-1,9.457230717E0
1.174440538E1,3.291616961E-3,-9.511004382E0,-7.999368158E-1,9.544585590E0
1.175436337E1,1.419263227E-1,-9.664681488E0,-1.178534528E0,9.737307379E0
1.176432137E1,2.626160697E-1,-9.695517949E0,-1.569704045E0,9.825273854E0
1.177427837E1,3.837811223E-1,-9.706314833E0,-1.893178155E0,9.896664040E0
1.178423638E1,5.672458456E-1,-9.828011763E0,-2.113420549E0,1.006867069E1
1.179419437E1,8.435665463E-1,-9.910711273E0,-2.149873261E0,1.017623494E1
1.180415237E1,1.195989782E0,-9.835588585E0,-1.962119751E0,1.010045090E1
1.181411038E1,1.425121698E0,-9.638326918E0,-1.667232679E0,9.884734819E0
1.182406737E1,1.490825691E0,-9.501427227E0,-1.311643030E0,9.706703253E0
1.183402537E1,1.610192505E0,-9.286911596E0,-1.170460838E0,9.497864258E0
1.184398338E1,1.859417793E0,-9.027828487E0,-8.783535326E-1,9.259083467E0
1.185394137E1,2.054981137E0,-8.332205122E0,-4.860690969E-1,8.595629868E0
1.186389837E1,2.277002985E0,-7.001770602E0,1.068613744E-1,7.363487864E0
1.187385637E1,2.798116930E0,-4.815269213E0,1.390471683E0,5.740181831E0
1.188381438E1,3.607340586E0,-1.343929308E0,3.166247980E0,4.984393480E0
1.189377237E1,4.623224432E0,3.002645810E0,5.783858732E0,7.990188223E0
1.190373037E1,4.418951368E0,7.434780895E0,8.802903643E0,1.234075406E1
1.191368737E1,2.971236029E0,1.217496484E1,1.008152014E1,1.608400015E1
1.192364538E1,1.597439582E0,1.687342715E1,9.446699043E0,1.940372335E1
1.193360337E1,1.133090552E0,2.062316235E1,8.789387219E0,2.244664891E1
1.194356137E1,1.188475160E0,2.376744643E1,9.882353446E0,2.576751623E1
1.195351837E1,1.082846305E0,2.603865702E1,1.258849163E1,2.894225867E1
1.196347638E1,1.610493491E0,2.520397868E1,1.470661392E1,2.922530964E1
1.197343437E1,1.766783718E0,2.265301391E1,1.398661936E1,2.668156826E1
1.198339237E1,5.870810264E-1,2.138353194E1,1.205503611E1,2.455451074E1
1.199335038E1,-3.149759490E-1,1.991234207E1,1.031488953E1,2.242760626E1
1.200330738E1,-1.182495431E0,1.809144895E1,8.158267998E0,1.988105021E1
1.201326537E1,-2.331305054E0,1.623321785E1,5.838199246E0,1.740795552E1
1.202322337E1,-3.572030713E0,1.409007298E1,3.583895883E0,1.497110115E1
1.203318138E1,-4.535565898E0,1.171593269E1,1.991492800E0,1.272008177E1
1.204313837E1,-4.775409621E0,8.973708998E0,1.481432870E0,1.027261571E1
1.205309637E1,-4.054027224E0,5.796222085E0,1.864995014E0,7.315021093E0
1.206305438E1,-2.600481334E0,2.870508676E0,2.263747201E0,4.486298543E0
1.207301237E1,-1.008804768E0,3.867734349E-1,2.430196527E0,2.659536784E0
1.208296937E1,2.177810088E-1,-2.104476063E0,2.523252479E0,3.292878853E0
1.209292737E1,7.703263696E-1,-4.378610258E0,2.438199318E0,5.070546955E0
1.210288538E1,6.043788810E-1,-6.418068792E0,2.241245215E0,6.824958678E0
1.211284337E1,-1.945229045E-1,-8.325347507E0,1.936518887E0,8.549816119E0
1.212280137E1,-1.348104805E0,-9.968581166E0,1.539522765E0,1.017644964E1
1.213275837E1,-2.699616490E0,-1.113898324E1,9.189723124E-1,1.149823408E1
1.214271621E1,-3.734255279E0,-1.188751338E1,1.172906144E-1,1.246079428E1
1.215267421E1,-4.388999591E0,-1.232608262E1,-8.158953291E-1,1.310958868E1
1.216263221E1,-4.733651438E0,-1.240031887E1,-1.602867406E0,1.336953806E1
1.217258921E1,-4.615769524E0,-1.224443093E1,-2.058550277E0,1.324647298E1
1.218254721E1,-4.159453984E0,-1.213063125E1,-2.141155647E0,1.300145452E1
1.219250521E1,-3.408201963E0,-1.200267313E1,-1.844358582E0,1.261275788E1
1.220246321E1,-2.595871974E0,-1.181475297E1,-1.470466709E0,1.218561494E1
1.221242021E1,-1.907435713E0,-1.164418384E1,-1.186542582E0,1.185888745E1
1.222237821E1,-1.378183759E0,-1.152205539E1,-1.059807252E0,1.165248224E1
1.223233621E1,-9.262439098E-1,-1.140240966E1,-1.030105589E0,1.148625228E1
1.224229421E1,-5.477510825E-1,-1.126499308E1,-1.025080054E0,1.132479092E1
1.225225221E1,-3.952039870E-1,-1.119644617E1,-9.710567513E-1,1.124542325E1
1.226220921E1,-4.701778631E-1,-1.103389942E1,-8.656061639E-1,1.107778307E1
1.227216721E1,-4.396612081E-1,-1.069722961E1,-9.053711772E-1,1.074447394E1
1.228212521E1,-7.838810194E-2,-1.038697050E1,-1.000675822E0,1.043535591E1
1.229208321E1,3.794138004E-1,-1.012750030E1,-9.528625551E-1,1.017930077E1
1.230204021E1,7.328984883E-1,-9.896159892E0,-5.002702296E-1,9.935863883E0
1.231199821E1,9.009793335E-1,-9.748958577E0,3.411043417E-1,9.796443705E0
1.232195621E1,1.192604536E0,-9.632099633E0,6.198566070E-1,9.725423957E0
1.233191421E1,1.626250421E0,-9.410980741E0,2.649616072E-1,9.554132802E0
1.234187121E1,1.901746957E0,-8.870982774E0,-2.407789850E-1,9.075734207E0
1.235182921E1,2.232459042E0,-8.015273169E0,-5.290046167E-1,8.337165180E0
1.236178721E1,2.797526946E0,-7.072438297E0,-3.736958447E-1,7.614800658E0
1.237174521E1,3.444026392E0,-5.896066216E0,3.694139287E-1,6.838229395E0
1.238170321E1,3.930057189E0,-4.140668342E0,2.154151669E0,6.101709043E0
1.239166021E1,3.889514058E0,-1.505277961E0,4.612039585E0,6.218125962E0
1.240161821E1,3.161203879E0,2.133113387E0,7.301033438E0,8.237018390E0
1.241157621E1,2.090314399E0,6.632120154E0,9.647923368E0,1.189272287E1
1.242153421E1,7.089266583E-1,1.133547892E1,1.069876976E1,1.560318345E1
1.243149121E1,-7.599968246E-1,1.548942395E1,1.025167294E1,1.859022990E1
1.244144921E1,-1.234931361E0,1.860302185E1,9.829012806E0,2.107621812E1
1.245140721E1,-1.061401203E0,2.143642585E1,1.051095135E1,2.389826404E1
1.246136521E1,-2.200096166E0,2.405214269E1,1.125681984E1,2.664698827E1
1.247132321E1,-2.449885710E0,2.374982527E1,1.102597995E1,2.629882838E1
1.248128021E1,-1.915920315E0,2.174334854E1,9.682141274E0,2.387860582E1
1.249123821E1,-2.519747073E0,2.073721112E1,7.670474557E0,2.225347682E1
1.250119621E1,-3.453881289E0,1.935299041E1,5.448069509E0,2.039973027E1
1.251115421E1,-4.136849818E0,1.736068499E1,3.450655965E0,1.817729177E1
1.252111121E1,-4.953675731E0,1.533190230E1,1.188588669E0,1.615607856E1
1.253106921E1,-5.221520893E0,1.307229259E1,-7.091054370E-1,1.409439408E1
1.254102721E1,-4.758365865E0,1.061122993E1,-1.631822818E0,1.174321472E1
1.255098521E1,-3.491880881E0,7.972362792E0,-1.527268901E0,8.836535004E0
1.256094321E1,-2.038259270E0,5.306259912E0,-9.220044592E-1,5.758557747E0
1.257090021E1,-9.093336160E-1,2.793154106E0,-3.468224801E-1,2.957851132E0
1.258085821E1,-4.151764311E-2,6.622661698E-1,9.098135993E-2,6.697744413E-1
1.259081621E1,5.325622820E-1,-1.072319124E0,5.132976799E-1,1.302676244E0
1.260077421E1,7.731544485E-1,-2.815014507E0,8.129411696E-1,3.030337905E0
1.261073121E1,4.648142488E-1,-4.681232904E0,9.006679693E-1,4.789696919E0
1.262068921E1,-2.096618575E-1,-6.375474749E0,8.570263982E-1,6.436235749E0
1.263064721E1,-8.193378773E-1,-7.637550640E0,6.877530134E-1,7.712100786E0
1.264060521E1,-1.308477640E0,-8.609253216E0,1.564226666E-1,8.709524827E0
1.265056321E1,-1.711175382E0,-9.435137928E0,-6.567078066E-1,9.611514660E0
1.266052021E1,-1.873695232E0,-1.008899873E1,-1.409855057E0,1.035791100E1
1.267047821E1,-1.946276428E0,-1.052674234E1,-1.770290732E0,1.085054033E1
1.268043621E1,-2.147192020E0,-1.089605482E1,-1.677389731E0,1.123156625E1
1.269039421E1,-2.100522322E0,-1.123520385E1,-1.555658302E0,1.153525346E1
1.270035121E1,-1.981757917E0,-1.147225348E1,-1.335609451E0,1.171852452E1
1.271030921E1,-1.787618517E0,-1.155225158E1,-1.151675927E0,1.174633789E1
1.272026721E1,-1.423643230E0,-1.152453928E1,-9.549557121E-1,1.165133924E1
1.273022521E1,-9.226999855E-1,-1.144440436E1,-7.519642121E-1,1.150613822E1
1.274018221E1,-4.715398258E-1,-1.132326409E1,-6.379787363E-1,1.135102094E1
1.275014021E1,-2.296607968E-1,-1.113721972E1,-5.097526592E-1,1.115124455E1
1.276009821E1,-2.082727052E-1,-1.103543139E1,-4.604729104E-1,1.104699773E1
1.277005621E1,-4.677731591E-1,-1.109107349E1,-2.439236176E-1,1.110361300E1
1.278001421E1,-8.412424242E-1,-1.108768796E1,-5.621761635E-2,1.111969754E1
1.278997121E1,-1.173952211E0,-1.104071493E1,1.168557277E-1,1.110356723E1
1.279992921E1,-1.281528700E0,-1.082177413E1,1.126314068E-1,1.089797215E1
1.280988721E1,-1.024341843E0,-1.032602146E1,6.771806628E-2,1.037692542E1
1.281984521E1,-4.196122385E-1,-9.725484345E0,-3.084026188E-2,9.734581208E0
1.282980221E1,4.525484348E-1,-9.032403349E0,-2.229280204E-1,9.046480379E0
1.283976021E1,1.292100027E0,-8.141105250E0,-2.996405661E-2,8.243058596E0
1.284971821E1,1.968289587E0,-7.217972571E0,1.764677989E-1,7.483610947E0
1.285967621E1,2.414745406E0,-6.386187433E0,3.573791894E-1,6.836819815E0
1.286963321E1,2.669738680E0,-5.091627336E0,8.385649842E-1,5.809936728E0
1.287959121E1,2.870218070E0,-3.171024570E0,1.829793752E0,4.652063388E0
1.288954921E1,3.093247247E0,-9.407813305E-1,3.283290234E0,4.607954297E0
1.289950721E1,3.108763418E0,1.722563419E0,4.822228862E0,5.990452897E0
1.290946521E1,2.671151952E0,4.815911238E0,6.176807996E0,8.275325421E0
1.291942221E1,1.072485843E0,8.282627165E0,6.163049498E0,1.037956250E1
1.292938021E1,-1.947550244E0,1.214100889E1,4.753416197E0,1.318301993E1
1.293933821E1,-5.153852820E0,1.605830775E1,2.527034166E0,1.705336765E1
1.294929621E1,-7.106855593E0,1.892093029E1,1.570652025E0,2.027254170E1
1.295925321E1,-8.837470043E0,2.089929594E1,2.680945453E0,2.284882746E1
1.296921121E1,-1.066494011E1,2.268200207E1,4.245437583E0,2.542120976E1
1.297916921E1,-1.051036312E1,2.260537313E1,5.704644163E0,2.557368946E1
1.298912721E1,-8.755277486E0,2.107813654E1,6.046375326E0,2.361146710E1
1.299908521E1,-7.439582629E0,2.064476664E1,4.914230999E0,2.248785107E1
1.300904221E1,-5.954595090E0,2.086559727E1,3.142295153E0,2.192497140E1
1.301900021E1,-4.091274865E0,2.081803602E1,9.774775788E-1,2.123875269E1
1.302895821E1,-2.861308667E0,1.953714495E1,-6.240628016E-1,1.975541887E1
1.303891621E1,-2.521181687E0,1.712892475E1,-1.027327139E0,1.734392750E1
1.304887321E1,-2.980596544E0,1.419564797E1,-6.250398713E-1,1.451864497E1
1.305883121E1,-3.907770234E0,1.094693963E1,2.609154801E-1,1.162644539E1
1.306878921E1,-4.525341165E0,7.564832911E0,1.598330259E0,8.958798427E0
1.307874721E1,-4.044318800E0,4.187443728E0,2.826191459E0,6.471364439E0
1.308870421E1,-2.643255470E0,1.135160905E0,3.755575397E0,4.730722601E0
1.309866221E1,-1.028322043E0,-1.555141847E0,3.933215563E0,4.352711460E0
1.310862021E1,9.261689193E-1,-3.912114131E0,3.280173960E0,5.188638265E0
1.311857821E1,2.504540804E0,-5.788315480E0,2.178704712E0,6.672636282E0
1.312853621E1,2.968883402E0,-7.332491459E0,1.093125857E0,7.985901564E0
1.313849325E1,2.627554235E0,-8.743197724E0,-1.501196605E-1,9.130721965E0
1.314845125E1,1.974805578E0,-1.008675690E1,-1.487014330E0,1.038526521E1
1.315840925E1,1.330579238E0,-1.141670727E1,-2.629922065E0,1.179101930E1
1.316836725E1,4.700431214E-1,-1.254830255E1,-3.385655392E0,1.300551805E1
1.317832425E1,-4.974982839E-1,-1.328111303E1,-3.683721303E0,1.379149269E1
1.318828225E1,-1.019304467E0,-1.372524181E1,-3.747437242E0,1.426409935E1
1.319824025E1,-9.761763541E-1,-1.393563398E1,-3.402871934E0,1.437825970E1
1.320819825E1,-4.841537683E-1,-1.393365061E1,-2.925726857E0,1.424573275E1
1.321815525E1,-1.324522253E-2,-1.379396998E1,-2.665260297E0,1.404910658E1
1.322811325E1,2.459863326E-1,-1.367957505E1,-2.639007468E0,1.393397443E1
1.323807125E1,5.057801340E-1,-1.357526774E1,-2.797480461E0,1.386973701E1
1.324802925E1,7.644158578E-1,-1.349923289E1,-3.020454674E0,1.385412453E1
1.325798725E1,7.250366145E-1,-1.344471111E1,-3.401703660E0,1.388731517E1
1.326794425E1,3.889696856E-1,-1.335572584E1,-3.763559478E0,1.388132163E1
1.327790225E1,-3.296442742E-2,-1.316599422E1,-3.877857633E0,1.372524209E1
1.328786025E1,-1.128158316E-1,-1.283676440E1,-3.671665221E0,1.335201757E1
1.329781825E1,6.837433401E-2,-1.234809154E1,-3.158317986E0,1.274578410E1
1.330777525E1,2.467052112E-1,-1.179631319E1,-2.561530691E0,1.207374457E1
1.331773325E1,3.148444232E-1,-1.126918904E1,-1.952342622E0,1.144138935E1
1.332769125E1,2.697028220E-3,-1.067329461E1,-1.457385172E0,1.077233478E1
1.333764925E1,-3.415910494E-1,-1.003846241E1,-9.948179354E-1,1.009341740E1
1.334760625E1,-6.676171761E-1,-9.067670245E0,-7.503188056E-1,9.123120885E0
1.335756425E1,-1.040531687E0,-7.626810474E0,-7.180649793E-1,7.730883618E0
1.336752225E1,-1.367959172E0,-5.779118979E0,-6.753827901E-1,5.977095480E0
1.337748025E1,-1.537069273E0,-3.305597654E0,-1.321786487E-1,3.647880069E0
1.338743825E1,-1.541039825E0,-2.385506111E-1,1.109272358E0,1.913686312E0
1.339739525E1,-2.330260010E0,3.459587002E0,3.190971762E0,5.251776340E0
1.340735325E1,-3.820599943E0,7.364154131E0,5.610923821E0,1.001549880E1
1.341731125E1,-5.419670752E0,1.168269711E1,7.444793667E0,1.487559060E1
1.342726925E1,-7.328423551E0,1.606220784E1,7.116015256E0,1.903517758E1
1.343722625E1,-9.842284817E0,1.974892643E1,4.561117646E0,2.253207624E1
1.344718425E1,-1.191045084E1,2.285092579E1,2.603839390E0,2.589987699E1
1.345714225E1,-1.266775648E1,2.458849608E1,3.696296325E0,2.790571269E1
1.346710025E1,-1.293569462E1,2.538785724E1,7.165032465E0,2.938048980E1
1.347705725E1,-1.297611876E1,2.551171764E1,9.889870627E0,3.028261772E1
1.348701525E1,-1.206216621E1,2.376301892E1,1.038901936E1,2.860259857E1
1.349697325E1,-1.111385308E1,2.155000684E1,8.849051038E0,2.581135853E1
1.350693125E1,-1.016281631E1,1.957147513E1,6.230525782E0,2.291604079E1
1.351688925E1,-9.252439336E0,1.770116368E1,4.536044201E0,2.048205376E1
1.352684625E1,-7.962680388E0,1.550600432E1,4.046447479E0,1.789452950E1
1.353680425E1,-6.306782244E0,1.276865721E1,3.976869121E0,1.478612854E1
1.354676225E1,-4.943230265E0,9.728137811E0,4.237252650E0,1.170583191E1
1.355672025E1,-3.737908327E0,6.573295995E0,4.424940087E0,8.761294064E0
1.356667725E1,-2.366555870E0,3.404378176E0,4.258216673E0,5.943297627E0
1.357663525E1,-5.838767888E-1,3.575203997E-1,3.775457100E0,3.837031307E0
1.358659325E1,1.987590807E0,-2.391484305E0,3.604441245E0,4.760431817E0
1.359655125E1,5.797551157E0,-4.587759315E0,4.560188524E0,8.686452344E0
1.360650925E1,8.365897363E0,-6.066361109E0,5.953861849E0,1.192633417E1
1.361646625E1,8.740339020E0,-7.807540308E0,6.811451919E0,1.355533434E1
1.362642425E1,8.127829147E0,-9.750378866E0,6.801954871E0,1.440132233E1
1.363638225E1,6.993071700E0,-1.126422475E1,5.535100636E0,1.436743367E1
1.364634025E1,5.209889612E0,-1.242106947E1,3.392058678E0,1.388999563E1
1.365629725E1,3.417327712E0,-1.303668071E1,1.209294244E0,1.353128099E1
1.366625525E1,2.053570204E0,-1.292042403E1,-5.129972792E-1,1.309265725E1
1.367621325E1,1.032825129E0,-1.216178171E1,-1.619786325E0,1.231256959E1
1.368617125E1,6.220615190E-1,-1.138630643E1,-1.948570583E0,1.156857217E1
1.369612825E1,6.507041779E-1,-1.095603322E1,-1.845078374E0,1.112934832E1
1.370608625E1,6.793081722E-1,-1.083765283E1,-1.238822683E0,1.092935772E1
1.371604425E1,1.984613697E-1,-1.083858955E1,-3.755269003E-1,1.084690882E1
1.372600225E1,-5.850966641E-1,-1.082643553E1,1.584560359E-1,1.084339212E1
1.373596025E1,-1.453195058E0,-1.078949984E1,8.003201008E-2,1.088721671E1
1.374591725E1,-2.143372619E0,-1.074872720E1,-1.649324119E-1,1.096158681E1
1.375587525E1,-2.594264574E0,-1.062838332E1,-1.358752767E-1,1.094126148E1
1.376583325E1,-2.716055059E0,-1.052359420E1,1.420276988E-1,1.086936805E1
1.377579125E1,-2.635047441E0,-1.053096169E1,5.967480819E-1,1.087201625E1
1.378574825E1,-2.639768191E0,-1.055517852E1,1.066531477E0,1.093241323E1
1.379570625E1,-2.684223402E0,-1.054695733E1,1.578773954E0,1.099708559E1
1.380566425E1,-2.584429850E0,-1.054554698E1,1.996081549E0,1.103957338E1
1.381562225E1,-2.541962107E0,-1.047111076E1,2.025142211E0,1.096389223E1
1.382557925E1,-2.581479345E0,-1.033443911E1,1.948473519E0,1.082872183E1
1.383553725E1,-2.672667257E0,-1.005457734E1,1.666053588E0,1.053629016E1
1.384549525E1,-2.792672296E0,-9.743464533E0,1.455147443E0,1.023970574E1
1.385545325E1,-2.912457478E0,-9.335309585E0,1.483801285E0,9.891010052E0
1.386541125E1,-3.122656110E0,-8.595715742E0,1.522834226E0,9.271263904E0
1.387536825E1,-3.312155599E0,-7.481013075E0,1.817358040E0,8.380854466E0
1.388532625E1,-3.327862682E0,-5.827305298E0,2.444260104E0,7.141888022E0
1.389528425E1,-3.148793457E0,-3.216107188E0,2.914382674E0,5.362077214E0
1.390524225E1,-2.915522296E0,-7.021979749E-2,3.913806900E0,4.880889830E0
1.391519925E1,-2.509251029E0,3.554410129E0,5.175455943E0,6.761325041E0
1.392515725E1,-2.897993221E0,8.270684811E0,5.563763688E0,1.038065789E1
1.393511525E1,-4.326622956E0,1.421335100E1,4.448939399E0,1.550909651E1
1.394507325E1,-6.875749072E0,2.063689161E1,2.256250486E0,2.186887942E1
1.395503025E1,-9.178273253E0,2.669501400E1,1.192319192E0,2.825395719E1
1.396498825E1,-1.114633436E1,3.170183741E1,3.980842888E0,3.383924312E1
1.397494625E1,-1.292966380E1,3.447525365E1,1.004815475E1,3.816653946E1
1.398490425E1,-1.216691907E1,3.423874080E1,1.666714089E1,3.997647904E1
1.399486225E1,-9.159393178E0,3.187800934E1,2.131937395E1,3.942864020E1
1.400481925E1,-5.049197016E0,2.820774014E1,2.149899573E1,3.582426289E1
1.401477725E1,-1.061436871E0,2.465244825E1,1.904227872E1,3.116854555E1
1.402473525E1,1.659832735E0,2.175918981E1,1.595485647E1,2.703284726E1
1.403469325E1,3.220370393E0,1.846024220E1,1.329006863E1,2.297340314E1
1.404465025E1,4.624835925E0,1.393706187E1,1.182875822E1,1.885604205E1
1.405460825E1,5.823557818E0,8.745557660E0,1.089080870E1,1.513302080E1
1.406456625E1,6.338916203E0,3.529534319E0,9.940250237E0,1.230642295E1
1.407452425E1,6.528953050E0,-1.189316647E0,8.691412443E0,1.093537161E1
1.408448225E1,6.687911362E0,-5.456303558E0,7.550565705E0,1.146780055E1
1.409443925E1,7.197082808E0,-8.529663255E0,6.824120497E0,1.308135225E1
1.410439725E1,8.490917850E0,-1.058887485E1,6.032934916E0,1.485315658E1
1.411435525E1,9.348754088E0,-1.278024288E1,4.746138167E0,1.653056679E1
1.412431325E1,9.112607267E0,-1.430849221E1,3.082036965E0,1.724156352E1
1.413427025E1,7.799263574E0,-1.483480711E1,1.259114860E0,1.680730152E1
1.414422858E1,6.110354390E0,-1.514069718E1,-4.274816772E-1,1.633278551E1
1.415418658E1,4.568505018E0,-1.547452992E1,-1.802125897E0,1.623514620E1
1.416414458E1,3.167446367E0,-1.543109447E1,-2.586265583E0,1.596371394E1
1.417410158E1,1.903946095E0,-1.511574477E1,-2.664976122E0,1.546650731E1
1.418405958E1,8.698461992E-1,-1.458796807E1,-2.379729062E0,1.480636874E1
1.419401758E1,6.130228199E-2,-1.386579952E1,-1.853704187E0,1.398929496E1
1.420397558E1,-5.153290026E-1,-1.302790521E1,-1.175495072E0,1.309097654E1
1.421393258E1,-9.606657375E-1,-1.213549614E1,-6.182915998E-1,1.218915213E1
1.422389058E1,-1.245870624E0,-1.120827158E1,-2.928215067E-1,1.128110322E1
1.423384858E1,-1.307919230E0,-1.022894248E1,-1.323505569E-1,1.031307101E1
1.424380658E1,-1.302191298E0,-9.454947125E0,5.416743636E-2,9.544352332E0
1.425376458E1,-1.531702845E0,-8.932707152E0,3.088078308E-1,9.068336835E0
1.426372158E1,-2.007668245E0,-8.651841996E0,6.875846136E-1,8.908303671E0
1.427367958E1,-2.306054730E0,-8.451421663E0,1.018649871E0,8.819414045E0
1.428363758E1,-2.538753740E0,-8.401771200E0,1.122890523E0,8.848497781E0
1.429359558E1,-2.858708410E0,-8.536937776E0,1.379807823E0,9.107984958E0
1.430355258E1,-3.057648521E0,-8.561663897E0,1.732476788E0,9.254878659E0
1.431351058E1,-3.214779578E0,-8.495166437E0,1.864388219E0,9.272464826E0
1.432346858E1,-3.348747474E0,-8.375873882E0,1.951961968E0,9.229275620E0
1.433342658E1,-3.353946234E0,-8.229718049E0,1.967686885E0,9.102142945E0
1.434338358E1,-3.262554545E0,-8.034625699E0,1.880370414E0,8.873289423E0
1.435334158E1,-2.939756082E0,-7.816970698E0,1.792983776E0,8.541778944E0
1.436329958E1,-2.629305476E0,-7.510093617E0,1.599169627E0,8.116162697E0
1.437325758E1,-2.354459443E0,-7.060050970E0,1.456722098E0,7.583524131E0
1.438321558E1,-2.094448965E0,-6.409118459E0,1.785661892E0,6.975106041E0
1.439317258E1,-1.872230797E0,-5.466067239E0,2.126187944E0,6.156607377E0
1.440313058E1,-1.830856630E0,-3.814006623E0,2.033733525E0,4.694119147E0
1.441308858E1,-1.845317233E0,-1.377775331E0,1.829220725E0,2.941004763E0
1.442304658E1,-1.993755965E0,2.018021472E0,1.937500634E0,3.435313991E0
1.443300358E1,-2.172106421E0,6.650811363E0,2.329514928E0,7.374142520E0
1.444296158E1,-2.555863570E0,1.271792092E1,2.517357901E0,1.321419849E1
1.445291958E1,-2.743986624E0,1.900276558E1,3.124148612E0,1.945237432E1
1.446287758E1,-2.171261937E0,2.357575833E1,4.415441285E0,2.408374724E1
1.447283558E1,-1.872760993E0,2.672624280E1,6.298525391E0,2.752218578E1
1.448279258E1,-2.222602829E0,2.914604284E1,8.155498756E0,3.034705812E1
1.449275058E1,-1.943629101E0,2.933177145E1,9.112304381E0,3.077603941E1
1.450270858E1,-1.848128574E0,2.788685430E1,8.581961337E0,2.923597582E1
1.451266658E1,-2.736222106E0,2.681895392E1,6.882601424E0,2.782289350E1
1.452262358E1,-3.545330280E0,2.562228147E1,4.691408229E0,2.628840021E1
1.453258158E1,-4.317600118E0,2.413713314E1,3.038096309E0,2.470774971E1
1.454253958E1,-3.986033754E0,2.183068723E1,2.774535987E0,2.236437837E1
1.455249758E1,-2.651235750E0,1.834654426E1,3.984544176E0,1.896052029E1
1.456245558E1,-1.020563957E0,1.416177739E1,5.624323885E0,1.527188622E1
1.457241258E1,9.400998375E-1,9.694740855E0,6.604328338E0,1.176813242E1
1.458237058E1,2.902947859E0,5.173063847E0,7.233743681E0,9.354931506E0
1.459232858E1,4.595918812E0,9.211224067E-1,7.761146160E0,9.066770425E0
1.460228658E1,6.120370671E0,-2.879049704E0,8.123226804E0,1.057046253E1
1.461224358E1,7.479165355E0,-6.062227712E0,8.148684411E0,1.261307167E1
1.462220158E1,8.442101201E0,-8.522444867E0,7.518190842E0,1.415713010E1
1.463215958E1,8.465498834E0,-1.014425024E1,6.285152224E0,1.463125496E1
1.464211758E1,7.451937795E0,-1.097822691E1,4.531531320E0,1.402097069E1
1.465207458E1,5.947804134E0,-1.140846036E1,2.576691352E0,1.312130634E1
1.466203258E1,4.390458179E0,-1.199024194E1,9.923754072E-1,1.280729612E1
1.467199058E1,2.716114701E0,-1.263007118E1,-3.887806378E-2,1.291888109E1
1.468194858E1,1.578844121E0,-1.297147724E1,-3.628735256E-1,1.307224723E1
1.469190558E1,7.361773876E-1,-1.295343390E1,-1.905234090E-1,1.297573528E1
1.470186358E1,-1.197574816E-1,-1.279416276E1,2.829328052E-1,1.279785113E1
1.471182158E1,-8.105247346E-1,-1.258356593E1,6.405917108E-1,1.262590352E1
1.472177958E1,-1.488959260E0,-1.231828595E1,4.741015276E-1,1.241700208E1
1.473173758E1,-2.052870584E0,-1.197019769E1,1.423211559E-1,1.214578798E1
1.474169458E1,-2.338223771E0,-1.149854958E1,-3.628906287E-2,1.173393582E1
1.475165258E1,-2.490065437E0,-1.092373788E1,-1.626231272E-2,1.120396089E1
1.476161058E1,-2.649304707E0,-1.041519618E1,1.681589421E-1,1.074818144E1
1.477156858E1,-2.683013029E0,-1.016263622E1,5.691024828E-1,1.052623444E1
1.478152558E1,-2.699252208E0,-1.003029385E1,1.034708079E0,1.043855249E1
1.479148358E1,-2.653554464E0,-9.959893373E0,1.484998648E0,1.041374324E1
1.480144158E1,-2.497974673E0,-9.832753855E0,1.968481522E0,1.033430430E1
1.481139958E1,-2.195036862E0,-9.614949750E0,2.323037968E0,1.013222339E1
1.482135658E1,-1.834886385E0,-9.448519281E0,2.481483479E0,9.939772880E0
1.483131458E1,-1.590174855E0,-9.199513848E0,2.411641996E0,9.642392246E0
1.484127258E1,-1.577781974E0,-8.720995846E0,2.128685290E0,9.114629206E0
1.485123058E1,-1.657063786E0,-8.100704498E0,1.675744178E0,8.436550972E0
1.486118758E1,-1.791971330E0,-7.477196013E0,1.566593034E0,7.846899719E0
1.487114558E1,-2.306718096E0,-6.771535317E0,1.765428772E0,7.368268295E0
1.488110358E1,-2.657468005E0,-5.887845030E0,2.038227695E0,6.773715925E0
1.489106158E1,-2.774316424E0,-4.865928905E0,2.561695583E0,6.159251577E0
1.490101958E1,-2.598047723E0,-3.656352825E0,3.177396866E0,5.496782586E0
1.491097658E1,-2.015764154E0,-1.819074637E0,3.931145064E0,4.777681359E0
1.492093458E1,-1.037136793E0,6.644734937E-1,4.877553170E0,5.030676165E0
1.493089258E1,1.532622465E-1,3.674532988E0,5.847327919E0,6.907743900E0
1.494085058E1,9.877485055E-1,7.396157112E0,6.416452621E0,9.841222047E0
1.495080758E1,1.136984432E0,1.170095914E1,5.927114346E0,1.316570783E1
1.496076558E1,1.040450630E-1,1.609226487E1,4.249758675E0,1.664428619E1
1.497072358E1,-1.059331874E0,1.916417212E1,2.411196438E0,1.934428973E1
1.498068158E1,-2.185133141E0,2.064335629E1,1.295338361E0,2.079905929E1
1.499063958E1,-3.827636775E0,2.156056925E1,9.169580197E-1,2.191688303E1
1.500059658E1,-5.628841444E0,2.271937513E1,3.932182360E-1,2.340958100E1
1.501055458E1,-5.613316501E0,2.281149450E1,-3.829060864E-1,2.349511057E1
1.502051258E1,-4.364452980E0,2.142350116E1,-1.440991334E0,2.191098601E1
1.503047058E1,-3.642389089E0,2.042942305E1,-2.726888781E0,2.092998439E1
1.504042758E1,-2.746633366E0,1.915404474E1,-3.160266863E0,1.960634365E1
1.505038558E1,-1.453956511E0,1.746264289E1,-2.205217742E0,1.766128170E1
1.506034358E1,-7.363851830E-2,1.571426226E1,-4.204791248E-1,1.572005928E1
1.507030158E1,1.184978525E0,1.347245498E1,1.263535355E0,1.358336258E1
1.508025858E1,2.323040453E0,1.061282388E1,2.188134516E0,1.108225971E1
1.509021658E1,3.377909878E0,7.226437585E0,2.838206903E0,8.466823119E0
1.510017458E1,4.263311936E0,3.813387988E0,3.462201877E0,6.686149747E0
1.511013258E1,4.951824503E0,4.951387131E-1,4.130960795E0,6.467655320E0
1.512009058E1,5.440219622E0,-2.529514262E0,4.868167219E0,7.726155837E0
1.513004758E1,5.572869557E0,-5.230418016E0,5.575706041E0,9.460583786E0
1.514000475E1,5.210491875E0,-7.595574648E0,6.058316510E0,1.102475300E1
1.514996275E1,4.209166135E0,-9.583430334E0,6.188594813E0,1.215968430E1
1.515992075E1,2.649931821E0,-1.097282174E1,6.155994247E0,1.285773000E1
1.516987775E1,1.039963045E0,-1.187407882E1,5.987733600E0,1.333897390E1
1.517983575E1,-4.344003951E-1,-1.262151904E1,5.324297987E0,1.370545861E1
1.518979375E1,-1.838223976E0,-1.307115355E1,4.474308128E0,1.393748743E1
1.519975175E1,-3.121639279E0,-1.314866424E1,3.723054353E0,1.401760097E1
1.520970875E1,-3.708383104E0,-1.307200140E1,3.218038523E0,1.396370645E1
1.521966675E1,-3.804130091E0,-1.299330606E1,3.185761893E0,1.390850413E1
1.522962475E1,-3.638532851E0,-1.288410697E1,3.455884545E0,1.382686775E1
1.523958275E1,-3.422316265E0,-1.278383307E1,3.533520366E0,1.369760573E1
1.524954075E1,-3.424993120E0,-1.264505993E1,3.262213068E0,1.350074637E1
1.525949775E1,-3.601919925E0,-1.244825902E1,2.747964485E0,1.324704830E1
1.526945575E1,-4.071933445E0,-1.211645994E1,2.161951708E0,1.296392220E1
1.527941375E1,-4.824646978E0,-1.165793065E1,1.650727451E0,1.272436507E1
1.528937175E1,-5.583475236E0,-1.128988117E1,1.244254746E0,1.265641270E1
1.529932875E1,-6.149345963E0,-1.115563611E1,1.138410788E0,1.278900512E1
1.530928675E1,-6.595968574E0,-1.102443979E1,1.347021900E0,1.291741236E1
1.531924475E1,-6.837390752E0,-1.086412434E1,1.704624746E0,1.294931873E1
1.532920275E1,-6.797981688E0,-1.081877100E1,2.061394948E0,1.294247697E1
1.533915975E1,-6.560764827E0,-1.079927404E1,2.308390692E0,1.284510111E1
1.534911775E1,-6.372580377E0,-1.044345226E1,2.561114954E0,1.249939141E1
1.535907575E1,-6.216688930E0,-9.657673016E0,2.717702805E0,1.180270214E1
1.536903375E1,-5.753543842E0,-8.683447366E0,2.787751279E0,1.078318516E1
1.537899175E1,-5.016176620E0,-7.605243019E0,2.829239028E0,9.539724458E0
1.538894875E1,-4.137222578E0,-6.288465841E0,3.181368880E0,8.172057345E0
1.539890675E1,-3.175373145E0,-4.536263471E0,3.910071698E0,6.778594366E0
1.540886475E1,-2.416443291E0,-2.237635875E0,5.047400751E0,6.026812327E0
1.541882275E1,-1.716758303E0,8.722665811E-1,6.336124742E0,6.622279427E0
1.542877975E1,-1.311218230E0,5.010501897E0,7.715618570E0,9.292749454E0
1.543873775E1,-1.232914072E0,1.006879776E1,9.076167419E0,1.361167075E1
1.544869575E1,-1.299601859E0,1.515296230E1,1.021416188E1,1.832021655E1
1.545865375E1,-1.224471496E0,1.949589869E1,1.121479707E1,2.252467690E1
1.546861075E1,-9.199582261E-1,2.295794621E1,1.169786830E1,2.578281869E1
1.547856875E1,-8.061442199E-1,2.543888706E1,1.177744890E1,2.804452079E1
1.548852675E1,-9.682313767E-1,2.707829664E1,1.152886739E1,2.944633092E1
1.549848475E1,1.041459274E-1,2.610601695E1,1.098370107E1,2.832272332E1
1.550844275E1,1.069135900E0,2.398062656E1,1.087350912E1,2.635235668E1
1.551839975E1,6.944080219E-1,2.335590069E1,1.159550109E1,2.608516714E1
1.552835775E1,5.327190605E-1,2.228604733E1,1.233602523E1,2.547801432E1
1.553831575E1,3.868494487E-1,2.065034956E1,1.237038113E1,2.407515148E1
1.554827375E1,2.309094697E-1,1.858823775E1,1.217001810E1,2.221902883E1
1.555823075E1,2.864600649E-1,1.598534619E1,1.105121186E1,1.943560227E1
1.556818875E1,7.251719776E-1,1.283702285E1,8.948056093E0,1.566469719E1
1.557814675E1,1.364850938E0,9.400749283E0,6.645675754E0,1.159318383E1
1.558810475E1,2.216297631E0,6.008155001E0,4.964962612E0,8.103132446E0
1.559806175E1,3.409620205E0,2.629056092E0,4.528983103E0,6.248930615E0
1.560801975E1,4.737097203E0,-4.649454457E-1,5.886368024E0,7.570045752E0
1.561797775E1,5.984946817E0,-3.244663235E0,8.045410888E0,1.053926299E1
1.562793575E1,7.288308143E0,-6.081240519E0,9.383870126E0,1.334758182E1
1.563789375E1,8.158225898E0,-8.321583070E0,8.980868914E0,1.471262726E1
1.564785075E1,8.033157463E0,-9.604627075E0,6.980589064E0,1.433558871E1
1.565780875E1,6.990704747E0,-9.918882172E0,4.055660352E0,1.279463002E1
1.566776675E1,5.299104089E0,-9.947013127E0,1.017706130E0,1.131632891E1
1.567772475E1,3.897916799E0,-1.025295699E1,-1.486025419E0,1.106910809E1
1.568768175E1,2.692749520E0,-1.046346962E1,-3.006217874E0,1.121483136E1
1.569763975E1,1.656958536E0,-1.048756366E1,-3.524113365E0,1.118721941E1
1.570759775E1,8.516063216E-1,-1.066275442E1,-3.274641910E0,1.118672628E1
1.571755575E1,1.703311461E-1,-1.118460789E1,-2.503560226E0,1.146264717E1
1.572751275E1,-4.259279258E-1,-1.175439801E1,-1.603424061E0,1.187089954E1
1.573747075E1,-1.085309006E0,-1.197467198E1,-1.055584978E0,1.207000101E1
1.574742875E1,-1.773511671E0,-1.201419799E1,-1.128134233E0,1.219667921E1
1.575738675E1,-2.335757416E0,-1.197113558E1,-1.535427960E0,1.229314398E1
1.576734475E1,-2.709636278E0,-1.185290254E1,-1.765783113E0,1.228622877E1
1.577730175E1,-2.847706874E0,-1.164934343E1,-1.701997007E0,1.211253196E1
1.578725975E1,-2.799921089E0,-1.145657593E1,-1.455766663E0,1.188326330E1
1.579721775E1,-2.587234467E0,-1.133632794E1,-1.047956189E0,1.167494435E1
1.580717575E1,-2.282052202E0,-1.124850393E1,-5.930047309E-1,1.149296557E1
1.581713275E1,-2.022761809E0,-1.118245963E1,-1.804403242E-1,1.136536525E1
1.582709075E1,-1.882297071E0,-1.108552098E1,2.766306762E-1,1.124759273E1
1.583704875E1,-1.759178683E0,-1.083378782E1,6.797610390E-1,1.099671511E1
1.584700675E1,-1.495423649E0,-1.041065757E1,7.598024046E-1,1.054492212E1
1.585696375E1,-1.079433139E0,-9.883899450E0,9.385178733E-1,9.986864375E0
1.586692175E1,-7.875111902E-1,-9.145088550E0,1.164080064E0,9.252453775E0
1.587687975E1,-4.740437863E-1,-8.118679424E0,1.182919720E0,8.218088109E0
1.588683775E1,-3.955853350E-2,-6.800352734E0,9.672498485E-1,6.868910718E0
1.589679475E1,6.527123310E-1,-5.055692103E0,7.668096348E-1,5.155002720E0
1.590675275E1,1.308470331E0,-2.842843745E0,1.006748448E0,3.287460661E0
1.591671075E1,1.328056749E0,-8.291410267E-2,1.782316700E0,2.224244208E0
1.592666875E1,1.240511944E0,3.333857247E0,3.009620368E0,4.659537401E0
1.593662675E1,1.004280046E0,7.250088987E0,4.177565442E0,8.427598813E0
1.594658375E1,-9.197962582E-3,1.185421115E1,4.610833012E0,1.271936271E1
1.595654175E1,-1.517822286E0,1.642525678E1,4.776630228E0,1.717291592E1
1.596649975E1,-2.700759036E0,1.963733582E1,5.034835669E0,2.045161675E1
1.597645775E1,-4.039992152E0,2.121757626E1,4.998932596E0,2.216971822E1
1.598641475E1,-6.046736684E0,2.244121139E1,4.662996023E0,2.370473634E1
1.599637275E1,-7.868945428E0,2.341504410E1,3.797336211E0,2.499208584E1
1.600633075E1,-8.168383681E0,2.256734752E1,2.889092882E0,2.417342598E1
1.601628875E1,-7.863178904E0,2.003513594E1,1.549754807E0,2.157864673E1
1.602624575E1,-7.990385665E0,1.776315820E1,-2.023661038E-2,1.947758870E1
1.603620375E1,-7.759984319E0,1.598549003E1,-9.127480245E-1,1.779287378E1
1.604616175E1,-7.026017836E0,1.415805622E1,-7.387056506E-1,1.582280533E1
1.605611975E1,-5.658155290E0,1.270654223E1,2.601958523E-1,1.391181651E1
1.606607775E1,-3.313315394E0,1.146920357E1,1.648266943E0,1.205145109E1
1.607603475E1,-1.008245043E0,1.007119161E1,3.541460885E0,1.072321798E1
1.608599275E1,8.248202267E-1,7.942967670E0,5.860699916E0,9.905496824E0
1.609595075E1,1.634397493E0,5.599230559E0,7.652683234E0,9.622172244E0
1.610590875E1,1.775662715E0,3.191606185E0,8.129955195E0,8.912659512E0
1.611586575E1,1.601950270E0,4.055774957E-1,8.109043213E0,8.275706592E0
1.612582375E1,1.473736326E0,-2.495289924E0,8.190900139E0,8.688453006E0
1.613578175E1,1.903800207E0,-5.043592460E0,8.218686107E0,9.828991884E0
1.614574033E1,3.054225561E0,-7.349578192E0,8.168973665E0,1.140511833E1
1.615569733E1,3.762071654E0,-8.810993266E0,7.846351787E0,1.238353834E1
1.616565533E1,3.751413641E0,-9.518933206E0,7.053545358E0,1.242721593E1
1.617561333E1,3.535627702E0,-1.031930535E1,5.880389246E0,1.239224369E1
1.618557133E1,2.928520364E0,-1.102014443E1,4.492763110E0,1.225580414E1
1.619552933E1,2.108582270E0,-1.157469436E1,2.999029891E0,1.214141050E1
1.620548633E1,1.325225527E0,-1.224562611E1,1.666587439E0,1.242936423E1
1.621544433E1,5.931679413E-1,-1.283849518E1,8.653996110E-1,1.288129354E1
1.622540233E1,-9.072386317E-2,-1.307671776E1,4.491363287E-1,1.308474309E1
1.623536033E1,-7.154786097E-1,-1.306328320E1,1.528017783E-1,1.308375428E1
1.624531733E1,-1.109788740E0,-1.299073329E1,-6.701960723E-2,1.303822358E1
1.625527533E1,-1.324193786E0,-1.283836069E1,-3.080816066E-1,1.291014751E1
1.626523333E1,-1.446202080E0,-1.260379964E1,-5.559672976E-1,1.269867574E1
1.627519133E1,-1.381063221E0,-1.234676656E1,-7.225883853E-1,1.244476252E1
1.628514833E1,-1.360332794E0,-1.213794963E1,-8.285744315E-1,1.224201217E1
1.629510633E1,-1.473296323E0,-1.178146711E1,-7.857283741E-1,1.189919907E1
1.630506433E1,-1.559777520E0,-1.131238359E1,-6.637677348E-1,1.143868506E1
1.631502233E1,-1.503467956E0,-1.087737647E1,-5.739170802E-1,1.099577717E1
1.632497933E1,-1.317508664E0,-1.047486350E1,-3.444149987E-1,1.056301170E1
1.633493733E1,-1.054650227E0,-1.009284385E1,-1.520644079E-1,1.014893629E1
1.634489533E1,-7.916220021E-1,-9.733654659E0,-8.636158448E-2,9.766174110E0
1.635485333E1,-5.520180150E-1,-9.475876649E0,-7.423793100E-2,9.492232268E0
1.636481133E1,-4.571490607E-1,-9.025539302E0,-3.905062973E-2,9.037193697E0
1.637476833E1,-4.634280932E-1,-8.370238920E0,9.120486975E-3,8.383063185E0
1.638472633E1,-5.501206301E-1,-7.608100553E0,1.938931594E-1,7.630427333E0
1.639468433E1,-6.707165658E-1,-6.514204618E0,4.154358282E-1,6.561806874E0
1.640464233E1,-5.710487285E-1,-5.021368947E0,8.405735028E-1,5.123163726E0
1.641459933E1,-3.284170532E-1,-3.120014631E0,1.780730351E0,3.607402062E0
1.642455733E1,-6.186646521E-1,-3.359687322E-1,3.225913553E0,3.301838760E0
1.643451533E1,-1.236155768E0,3.232250766E0,5.152861133E0,6.207052758E0
1.644447333E1,-1.944487472E0,7.482184857E0,7.049425410E0,1.046224261E1
1.645443033E1,-2.855343922E0,1.242021344E1,7.942938434E0,1.501682263E1
1.646438833E1,-3.213701643E0,1.650353697E1,7.167315803E0,1.827744584E1
1.647434633E1,-3.530480691E0,1.926278424E1,5.120966910E0,2.024212076E1
1.648430433E1,-4.435212475E0,2.149918752E1,3.129225749E0,2.217381852E1
1.649426233E1,-5.860943745E0,2.373212457E1,1.373396351E0,2.448368060E1
1.650421933E1,-5.584125447E0,2.435200428E1,6.248627007E-1,2.499185913E1
