"Time (s)","Linear Acceleration x (m/s^2)","Linear Acceleration y (m/s^2)","Linear Acceleration z (m/s^2)","Absolute acceleration (m/s^2)"
4.109416663E-2,4.623586375E-1,1.335998729E0,1.606067002E0,2.139654021E0
5.115416663E-2,6.682741839E-1,1.317289978E0,1.572983456E0,2.157804492E0
6.121416664E-2,7.030203858E-1,1.407942286E0,1.334369110E0,2.063269267E0
7.127416664E-2,6.277056170E-1,1.696680719E0,1.244807308E0,2.195970181E0
8.133416664E-2,3.400363478E-1,2.165951934E0,1.042232276E0,2.427595645E0
9.139316663E-2,5.075324714E-2,2.634294028E0,9.637193727E-1,2.805501015E0
1.014531666E-1,-1.490043041E-1,2.941804946E0,9.434675413E-1,3.092983935E0
1.115131666E-1,-1.927936636E-1,3.148474199E0,9.990640372E-1,3.308804637E0
1.215731666E-1,-8.950040638E-2,3.220450500E0,1.060135281E0,3.391636560E0
1.316331666E-1,1.072923142E-1,2.967615141E0,1.108599928E0,3.169738958E0
1.416931666E-1,1.351506422E-1,2.562293753E0,1.456165443E0,2.950259780E0
1.517531666E-1,-1.316192164E-1,2.190102689E0,1.878314533E0,2.888241488E0
1.618131666E-1,-3.455917874E-1,1.791673999E0,2.150355656E0,2.820205463E0
1.718731666E-1,-4.624369901E-1,1.223253887E0,2.452691789E0,2.779549433E0
1.819331666E-1,-6.090088525E-1,6.220911205E-1,2.286295234E0,2.446433126E0
1.919931666E-1,-8.926471974E-1,1.974727517E-1,2.214662749E0,2.395943572E0
2.020521666E-1,-1.281046012E0,-1.049949431E-1,2.126873823E0,2.485094582E0
2.121121666E-1,-1.624114872E0,-4.149733865E-1,1.951324621E0,2.572473480E0
2.221721666E-1,-1.797022301E0,-7.364796156E-1,1.795575262E0,2.644954044E0
2.322321666E-1,-1.798298749E0,-9.310854775E-1,1.593080921E0,2.576568528E0
2.422921666E-1,-1.702845730E0,-9.462578326E-1,1.470301087E0,2.440670554E0
2.523521666E-1,-1.516559287E0,-9.336155677E-1,1.346855839E0,2.232848126E0
2.624121666E-1,-1.380676866E0,-8.517276514E-1,1.392881613E0,2.138183291E0
2.724721666E-1,-1.169064816E0,-6.897083223E-1,1.392468215E0,1.944576520E0
2.825321666E-1,-7.811463498E-1,-5.261236936E-1,1.261160216E0,1.574014248E0
2.925921666E-1,-3.730760399E-1,-5.189228475E-1,1.120310732E0,1.289791762E0
3.026521666E-1,-4.831992835E-2,-7.192969877E-1,8.573947728E-1,1.120200325E0
3.127121666E-1,2.231220017E-1,-9.966941607E-1,4.324811196E-1,1.109154000E0
3.227711666E-1,3.587319428E-1,-1.197274708E0,-5.131107152E-2,1.250914928E0
3.328311666E-1,4.281516950E-1,-1.249929469E0,-5.315347070E-1,1.424137176E0
3.428911666E-1,4.762099604E-1,-1.264289061E0,-9.550385964E-1,1.654479217E0
3.529511666E-1,4.581851873E-1,-1.292927554E0,-1.289328593E0,1.882541778E0
3.630111666E-1,3.310633568E-1,-1.435382684E0,-1.701800541E0,2.250789079E0
3.730711666E-1,6.340647563E-2,-1.474995232E0,-1.938427418E0,2.436623108E0
3.831311666E-1,-2.503383055E-1,-1.374596200E0,-1.996353444E0,2.436721374E0
3.931911666E-1,-5.216564208E-1,-1.271746600E0,-2.105637320E0,2.514592086E0
4.032511666E-1,-3.051132676E-1,-1.703067048E0,-2.050319152E0,2.682785884E0
4.133111666E-1,-9.287306575E-1,-1.152920653E0,-1.806294962E0,2.335480284E0
4.233711666E-1,-9.353187154E-1,-3.044171566E-1,-1.754130782E0,2.011085703E0
4.334311666E-1,-2.071611495E-1,-7.446744883E-1,-1.266673556E0,1.483886024E0
4.434911666E-1,-1.862402505E-1,-1.023614742E0,-1.498195814E0,1.824023922E0
4.535501666E-1,-3.702541736E-1,-1.025889308E0,-1.354711574E0,1.739189603E0
4.636101666E-1,-6.666508506E-1,-6.666200066E-1,-1.359501028E0,1.654402803E0
4.736701666E-1,-1.013189595E0,-4.330313426E-1,-1.369663489E0,1.757853057E0
4.837301666E-1,-1.092010792E0,-3.184352714E-1,-1.440593723E0,1.835537760E0
4.937901666E-1,-7.033474644E-1,-3.871394706E-1,-1.803794108E0,1.974398088E0
5.038501666E-1,-4.414994996E-1,-5.303032833E-1,-1.291975628E0,1.464699424E0
5.139101666E-1,-2.234837251E-1,-4.573762250E-1,-1.052183068E0,1.168857217E0
5.239701666E-1,-9.191223666E-2,-2.897283661E-1,-1.205712824E0,1.243436287E0
5.340301666E-1,1.578512876E-1,-3.242310315E-1,-7.170522416E-1,8.026248862E-1
5.440901666E-1,5.283383265E-1,-6.796066725E-1,-5.215833306E-2,8.623961435E-1
5.541501666E-1,3.793370191E-2,-7.152343422E-1,-1.650055021E-1,7.350006434E-1
5.642101666E-1,-8.587922573E-2,-8.148445845E-2,-1.920877585E0,1.924522189E0
5.742701666E-1,-3.585834235E-2,5.284456229E-1,-1.437478911E0,1.531955031E0
5.843301666E-1,-3.629292934E-1,6.098599148E-1,-1.387695717E0,1.558636003E0
5.943901666E-1,-5.059054837E-1,5.738568538E-1,-1.657986184E0,1.825971039E0
6.044501666E-1,-5.047730242E-1,6.712638652E-1,-1.817771292E0,2.002419400E0
6.145101666E-1,-5.831553885E-1,7.608677673E-1,-1.761287189E0,2.005273679E0
6.245691666E-1,-7.408062628E-1,7.735141253E-1,-1.582518511E0,1.910885360E0
6.346291666E-1,-9.001583844E-1,7.688264126E-1,-1.187031555E0,1.676431652E0
6.446891666E-1,-9.962712608E-1,7.769593048E-1,-7.441225111E-1,1.466267540E0
6.547491666E-1,-1.017653651E0,7.698678017E-1,-5.452540290E-1,1.387666149E0
6.648091666E-1,-1.040300941E0,7.689848721E-1,-3.387946916E-1,1.337290404E0
6.748691666E-1,-9.837931564E-1,8.051352829E-1,5.112220645E-2,1.272283490E0
6.849280833E-1,-9.033329840E-1,8.141657227E-1,5.039609921E-1,1.316378739E0
6.949880833E-1,-8.167029758E-1,8.203971004E-1,1.125273848E0,1.614402796E0
7.050480833E-1,-8.415143198E-1,8.504383403E-1,1.972418452E0,2.306908379E0
7.151080833E-1,-8.347512840E-1,8.644055843E-1,2.599789608E0,2.864072752E0
7.251680833E-1,-6.746615361E-1,8.965717024E-1,2.433452110E0,2.679682477E0
7.352280833E-1,-7.015264222E-1,1.036659295E0,2.034527577E0,2.388745335E0
7.452880833E-1,-7.175828764E-1,1.276683404E0,1.725092340E0,2.262916101E0
7.553480833E-1,-7.162410866E-1,1.562376607E0,1.286214366E0,2.146711287E0
7.654080833E-1,-7.161997175E-1,1.847072275E0,6.739249331E-1,2.092556532E0
7.754680833E-1,-6.980289102E-1,2.003578849E0,7.464035100E-1,2.249153344E0
7.855280833E-1,-5.593050344E-1,2.046706157E0,1.509656357E0,2.604014311E0
7.955880833E-1,-4.472190267E-1,1.904742193E0,2.339849297E0,3.050072526E0
8.056480833E-1,-3.330547723E-1,1.522662903E0,3.037474165E0,3.414041169E0
8.157080833E-1,-1.743057910E-1,1.283441616E0,2.814385346E0,3.098123588E0
8.257680833E-1,1.086687487E-1,9.437944007E-1,3.161900575E0,3.301540855E0
8.358280833E-1,3.939530848E-1,5.910774887E-1,2.954377044E0,3.038571268E0
8.458880833E-1,5.882006586E-1,2.849032438E-1,2.028114935E0,2.130821453E0
8.559470833E-1,5.061781101E-1,-2.376861003E-1,1.993512867E0,2.070459976E0
8.660080833E-1,3.484756342E-1,-5.025635076E-1,1.136167211E0,1.290302785E0
8.760670833E-1,3.457843801E-1,-4.344086543E-1,6.310894006E-1,8.405662068E-1
8.861270833E-1,1.006063154E-1,-1.999698052E-1,7.450574809E-1,7.779589987E-1
8.961870833E-1,-1.905997883E-1,-1.094090062E-1,6.873285055E-1,7.216086782E-1
9.062470833E-1,-4.107248727E-1,-2.597938380E-1,8.747411227E-1,1.000679665E0
9.163070833E-1,-4.443578379E-1,-3.663385856E-1,1.029588842E0,1.179708028E0
9.263670833E-1,-6.517277330E-2,-8.538139379E-1,1.080781215E0,1.378888598E0
9.364270833E-1,4.614359468E-1,-9.241033173E-1,1.103560798E0,1.511534488E0
9.464870833E-1,9.111667912E-1,-2.267678869E-1,7.632867604E-1,1.210064161E0
9.565470833E-1,1.299242547E0,4.345507416E-1,3.150643516E-1,1.405749298E0
9.666070833E-1,1.674093948E0,7.044760501E-1,-1.611013162E-1,1.823411826E0
9.766670833E-1,1.835398162E0,8.769542938E-1,-6.323892367E-1,2.130176376E0
9.867270833E-1,1.727163716E0,9.387158015E-1,-9.544468582E-1,2.185234693E0
9.967870833E-1,1.500264705E0,9.977098221E-1,-1.125816470E0,2.124542727E0
1.006847083E0,1.152159492E0,1.127133263E0,-1.328747013E0,2.088891934E0
1.016907083E0,7.781994992E-1,1.049369095E0,-1.682183132E0,2.129908460E0
1.026967083E0,3.082141192E-1,8.078972152E-1,-1.783004918E0,1.981615601E0
1.037027083E0,-3.631928567E-1,6.114614671E-1,-1.550224339E0,1.705576054E0
1.047087083E0,-8.866285852E-1,2.472503909E-1,-1.718349915E0,1.949351029E0
1.057147083E0,-1.030813029E0,-3.099392670E-1,-2.374231510E0,2.606839680E0
1.067207083E0,-9.885183645E-1,-7.108521464E-1,-3.219920742E0,3.442436479E0
1.077267083E0,-8.611997022E-1,-8.292597252E-1,-4.030882775E0,4.204444383E0
1.087327083E0,-6.155770299E-1,-5.768406880E-1,-4.395607529E0,4.475829064E0
1.097387083E0,-4.189638919E-1,-8.467908472E-2,-4.292957904E0,4.314184611E0
1.107447083E0,-4.081307555E-1,4.277562770E-1,-4.190901187E0,4.232398718E0
1.117507083E0,-6.520278414E-1,1.684632531E-1,-3.847157997E0,3.905655493E0
1.127567083E0,-5.822237078E-1,-5.069921887E-1,-2.878317048E0,2.980056133E0
1.137627083E0,-8.678091024E-1,-1.332103022E0,-1.940375125E0,2.508514845E0
1.147687083E0,-4.439235359E-2,-1.261153784E0,-1.693596312E0,2.112048299E0
1.157747083E0,8.024324074E-2,-1.053258955E-2,-2.634701579E0,2.635944294E0
1.167807083E0,-7.124256322E-1,9.168551087E-1,-3.931994664E0,4.099848242E0
1.177867083E0,-3.829326182E-1,6.308745155E-1,-3.302316197E0,3.383774860E0
1.187927083E0,1.346538482E-1,-1.134213656E-1,-2.625935433E0,2.631830725E0
1.197987083E0,3.394632476E-1,-2.720589575E-1,-2.641416521E0,2.677000674E0
1.208047083E0,3.920428725E-1,1.374054748E-1,-2.302739359E0,2.339911629E0
1.218107083E0,2.036349861E-1,3.807961187E-1,-1.874969341E0,1.924053773E0
1.228167083E0,-3.228130817E-1,-6.656704187E-2,-1.493412791E0,1.529353204E0
1.238227083E0,-5.810617930E-1,-9.111657679E-2,-1.244314973E0,1.376319290E0
1.248287083E0,-1.083119589E0,4.049793255E-1,-9.806727898E-1,1.516204280E0
1.258347083E0,-1.845335505E0,8.413207769E-1,-6.262169158E-1,2.122553039E0
1.268407083E0,-1.908863603E0,9.924821189E-1,-8.250345272E-1,2.304227199E0
1.278467083E0,-1.267294823E0,1.068653797E0,-1.008090384E0,1.940181262E0
1.288527083E0,-3.846718725E-1,1.070838317E0,-9.256446433E-1,1.466794177E0
1.298587083E0,2.034847127E-1,9.836627635E-1,-8.167887837E-1,1.294659174E0
1.308647083E0,5.158429728E-1,9.070905510E-1,-8.694014454E-1,1.358221673E0
1.318707083E0,7.563641687E-1,4.705222276E-1,-1.029781215E0,1.361589980E0
1.328766083E0,8.378278696E-1,6.730765021E-1,-4.251855487E-1,1.155755280E0
1.338827083E0,1.066466061E0,1.000027074E0,8.527076447E-1,1.692487618E0
1.348887083E0,1.175888370E0,8.625543559E-1,2.195774488E0,2.635932298E0
1.358946083E0,7.844997279E-1,6.535225359E-1,3.577856879E0,3.720697700E0
1.369006083E0,2.123325732E-1,2.021744978E-1,4.614602712E0,4.623907205E0
1.379066083E0,-3.168930683E-1,-1.380632865E-1,4.248810257E0,4.262847791E0
1.389126083E0,-5.506439924E-1,1.917261082E-1,3.097679436E0,3.152076394E0
1.399186083E0,-9.296093479E-2,1.006010822E0,1.252047331E0,1.608826289E0
1.409246083E0,4.119543229E-1,1.606078697E0,7.688457084E-1,1.827653925E0
1.419306083E0,1.480237260E-1,2.009127272E0,8.306320667E-1,2.179094548E0
1.429366083E0,-5.167687333E-1,2.419034338E0,1.183368275E0,2.742104580E0
1.439426083E0,-9.910163681E-1,2.273740970E0,1.648975625E0,2.978444569E0
1.449486083E0,-1.151104654E0,1.916621397E0,2.016853783E0,3.011009579E0
1.459546083E0,-8.595461096E-1,1.773990557E0,2.205983727E0,2.958416167E0
1.469606083E0,-5.923808330E-1,1.530632366E0,2.230212250E0,2.769042645E0
1.479666083E0,-4.028581750E-1,1.481872727E0,2.249610388E0,2.723782000E0
1.489726083E0,-3.214735577E-1,1.290611180E0,2.079570433E0,2.468529046E0
1.499786083E0,-2.458850661E-1,1.000170038E0,1.779349238E0,2.055938541E0
1.509846083E0,2.451775530E-1,9.512422916E-1,1.171384991E0,1.528763136E0
1.519906083E0,4.753515161E-1,1.607943374E-1,1.836394089E0,1.903721916E0
1.529966083E0,6.386058502E-2,-2.757321784E-1,2.178894162E0,2.197199621E0
1.540026083E0,-6.393392372E-1,-4.696556702E-1,2.672624280E0,2.787875832E0
1.550086083E0,-1.513457339E0,-7.375528720E-1,2.873618225E0,3.330498320E0
1.560146083E0,-1.993592535E0,-8.179295754E-1,1.992372660E0,2.934785989E0
1.570206083E0,-1.729799933E0,-6.510082331E-1,1.395697632E0,2.316029233E0
1.580266083E0,-1.261258450E0,-6.701868081E-1,1.577301040E0,2.127863202E0
1.590326083E0,-9.107441106E-1,-8.537697914E-1,1.485650028E0,1.940498312E0
1.600386083E0,-5.854199421E-1,-8.275342119E-1,1.302829229E0,1.650725108E0
1.610446083E0,-3.541709684E-1,-6.954274839E-1,1.090179445E0,1.340726550E0
1.620506083E0,-1.421542910E-1,-5.682654539E-1,8.175758189E-1,1.005765225E0
1.630566083E0,-1.059056470E-1,-6.483220223E-1,7.918773061E-1,1.028886349E0
1.640626083E0,-1.085882033E-1,-4.279042116E-1,5.838766426E-1,7.319872581E-1
1.650686083E0,6.975644220E-2,-3.610559186E-1,3.097240895E-1,4.807872182E-1
1.660746083E0,4.029014809E-1,-4.388972694E-1,-5.967843711E-2,5.987670100E-1
1.670806083E0,7.538497929E-1,-4.004676139E-1,-6.211520576E-1,1.055695836E0
1.680866083E0,1.000657550E0,-2.525055760E-1,-1.277193282E0,1.642040583E0
1.690926167E0,1.082356382E0,-9.232431918E-2,-1.703251235E0,2.020169272E0
1.700986167E0,8.303934272E-1,-2.185423163E-1,-1.944772816E0,2.125901055E0
1.711046167E0,3.661748636E-1,-6.251740649E-1,-2.253230984E0,2.366849490E0
1.721106167E0,-1.529016561E-1,-1.147374277E0,-2.844046517E0,3.070577672E0
1.731166167E0,-6.510955028E-1,-1.570241112E0,-3.314379002E0,3.724874585E0
1.741226167E0,-1.036163597E0,-1.602135042E0,-3.305453812E0,3.816607997E0
1.751285167E0,-1.266490830E0,-1.672282042E0,-3.180122838E0,3.809686013E0
1.761346167E0,-1.377586905E0,-1.726916086E0,-2.865625082E0,3.618258138E0
1.771405167E0,-1.349666742E0,-1.540001359E0,-2.414777273E0,3.166125989E0
1.781465167E0,-1.130043130E0,-1.221568427E0,-2.309616269E0,2.846674236E0
1.791525167E0,-7.722948347E-1,-1.049333427E0,-2.318971229E0,2.659918705E0
1.801585167E0,-3.795443029E-1,-9.032191095E-1,-2.304242678E0,2.503875587E0
1.811645167E0,-1.576334788E-1,-7.197062927E-1,-2.187268544E0,2.308022778E0
1.821705167E0,-7.490385577E-2,-6.864657488E-1,-1.953425526E0,2.071887327E0
1.831765167E0,-1.219194896E-1,-6.852281857E-1,-1.517733700E0,1.669705846E0
1.841825167E0,-2.543071032E-1,-8.255309558E-1,-1.069691970E0,1.374923406E0
1.851885167E0,-4.312752776E-1,-9.005770451E-1,-7.068704849E-1,1.223398243E0
1.861945167E0,-6.242548826E-1,-7.114155257E-1,-3.772202539E-1,1.018872577E0
1.872005167E0,-6.605278657E-1,-7.091023672E-1,-2.896014816E-1,1.011430792E0
1.882065167E0,-5.756789193E-1,-6.771163434E-1,-3.687160635E-1,9.622080316E-1
1.892125167E0,-3.548287071E-1,-4.676562148E-1,-4.676182079E-1,7.505148466E-1
1.902185167E0,5.423606806E-2,-1.161072841E-1,-4.768246490E-1,4.937450743E-1
1.912245167E0,2.415958411E-1,3.298592690E-1,-5.445570409E-1,6.809684710E-1
1.922305167E0,2.281025138E-1,4.311853766E-1,-7.359130204E-1,8.829040488E-1
1.932365167E0,1.982059926E-2,5.167362812E-1,-7.810441697E-1,9.367172655E-1
1.942425167E0,-2.575011813E-1,6.749236375E-1,-5.910348040E-1,9.333546562E-1
1.952485167E0,-5.824728723E-1,8.368450257E-1,-3.382234186E-1,1.074234297E0
1.962545167E0,-8.386968389E-1,7.644486022E-1,6.224770367E-2,1.136516093E0
1.972605167E0,-9.808121728E-1,7.213025826E-1,5.641358578E-1,1.341834267E0
1.982665167E0,-1.046322550E0,8.164835590E-1,1.116587809E0,1.734417659E0
1.992725167E0,-9.999542758E-1,9.930431592E-1,1.396588748E0,1.984062348E0
2.002785167E0,-7.990399991E-1,1.189077496E0,1.367234555E0,1.980328392E0
2.012845167E0,-5.320610294E-1,1.253547434E0,1.055449907E0,1.722917472E0
2.022904167E0,-3.645301880E-1,1.190596018E0,8.202497506E-1,1.491043524E0
2.032964167E0,-3.941977908E-1,1.317085618E0,1.025459538E0,1.715130808E0
2.043024167E0,-5.520875238E-1,1.480112130E0,1.214052708E0,1.992349500E0
2.053084167E0,-6.236390246E-1,1.614616216E0,1.322265374E0,2.178140693E0
2.063144167E0,-7.683527150E-1,1.752114077E0,1.385455064E0,2.362150581E0
2.073204167E0,-9.031875345E-1,1.828136067E0,1.314186861E0,2.425884644E0
2.083264167E0,-7.697387975E-1,1.924745226E0,1.558531478E0,2.593484600E0
2.093324167E0,-6.517920524E-1,1.729135689E0,1.917949884E0,2.663320271E0
2.103384167E0,-5.868405962E-1,1.439026377E0,2.356603324E0,2.822898869E0
2.113444167E0,-4.526149835E-1,1.289810988E0,2.668939365E0,2.998618022E0
2.123504167E0,-1.770513511E-1,9.441692072E-1,2.682942277E0,2.849733660E0
2.133564167E0,2.039098053E-1,1.125403364E0,2.721303520E0,2.951881568E0
2.143624167E0,6.259342761E-1,1.147291831E0,2.498853217E0,2.819989302E0
2.153684167E0,8.557917586E-1,9.763768405E-1,2.144990836E0,2.507324661E0
2.163744167E0,9.828288044E-1,6.120263082E-1,1.862635224E0,2.193157231E0
2.173804167E0,8.186310951E-1,3.725275710E-1,1.736517799E0,1.955614412E0
2.183864167E0,5.636179407E-1,-6.811187625E-2,1.357702425E0,1.471618254E0
2.193924167E0,2.599698026E-1,-3.497740084E-1,1.368480597E0,1.436198211E0
2.203984167E0,-9.276943848E-2,-4.777689743E-1,1.698542472E0,1.766894420E0
2.214044167E0,-2.637295988E-1,-7.878228468E-1,1.836639088E0,2.015802887E0
2.224104167E0,-1.624721959E-1,-9.490048546E-1,2.204635359E0,2.405706652E0
2.234164167E0,1.089972161E-1,-9.541463113E-1,2.544519387E0,2.719715883E0
2.244224167E0,4.330111697E-1,-8.389871532E-1,2.610176017E0,2.775683151E0
2.254284167E0,7.454083139E-1,-4.067042542E-1,2.484999409E0,2.626073870E0
2.264344167E0,1.048225307E0,-9.188256204E-2,2.067698246E0,2.320041969E0
2.274404167E0,1.210722207E0,1.276125580E-1,1.239434887E0,1.737334759E0
2.284464167E0,1.415613833E0,3.710262984E-1,2.354375535E-1,1.482246228E0
2.294524167E0,1.486569064E0,5.889958799E-1,-5.300886905E-1,1.684576430E0
2.304584167E0,1.336210837E0,5.910225248E-1,-1.230480461E0,1.910196113E0
2.314644167E0,1.045566651E0,5.114787573E-1,-1.634975052E0,2.006978715E0
2.324703167E0,6.550840348E-1,3.598592860E-1,-1.616047030E0,1.780517285E0
2.334764167E0,2.304092404E-1,1.647774607E-1,-1.471309732E0,1.498329856E0
2.344823167E0,-1.730044931E-1,-9.267369032E-2,-1.605286399E0,1.617239435E0
2.354883167E0,-4.787920909E-1,-3.705023879E-1,-2.089438194E0,2.175377175E0
2.364943167E0,-7.319313589E-1,-6.601559097E-1,-2.509420890E0,2.696056851E0
2.375003167E0,-8.870495117E-1,-9.100699997E-1,-2.739695937E0,3.020102327E0
2.385063167E0,-9.611226243E-1,-9.664506072E-1,-3.043931830E0,3.335161834E0
2.395123167E0,-8.834318393E-1,-9.007319963E-1,-3.333763107E0,3.564512084E0
2.405183167E0,-7.663616650E-1,-7.930321312E-1,-3.449309936E0,3.621318709E0
2.415243167E0,-5.529597822E-1,-7.687743723E-1,-3.593460758E0,3.716145688E0
2.425303167E0,-3.842948002E-1,-8.396098816E-1,-3.816621498E0,3.926732344E0
2.435363167E0,-3.068808809E-1,-7.902114344E-1,-3.826674616E0,3.919444935E0
2.445423167E0,-3.662605253E-1,-6.259216315E-1,-3.476022940E0,3.550867520E0
2.455483167E0,-3.899247918E-1,-7.770101756E-1,-3.299644604E0,3.412248623E0
2.465543167E0,-3.870187256E-1,-8.867062801E-1,-3.236228042E0,3.377751243E0
2.475603167E0,-4.808476795E-1,-6.884424001E-1,-3.134053795E0,3.244604848E0
2.485663167E0,-6.287339960E-1,-4.899709439E-1,-2.836738667E0,2.946602150E0
2.495723167E0,-6.519187908E-1,-4.783057487E-1,-2.591735069E0,2.714933731E0
2.505783167E0,-5.613927828E-1,-5.172353411E-1,-2.514018556E0,2.627352956E0
2.515843167E0,-3.765849540E-1,-3.660789692E-1,-2.435003377E0,2.490998090E0
2.525903167E0,-1.899210727E-1,-2.184589934E-1,-2.274637640E0,2.292982935E0
2.535963167E0,-3.435909798E-2,-1.300596178E-2,-2.106385179E0,2.106705538E0
2.546023167E0,1.187591609E-1,3.027208793E-1,-1.920509210E0,1.947844782E0
2.556083167E0,2.766237326E-1,5.981017488E-1,-1.730686371E0,1.851896786E0
2.566143167E0,3.769499664E-1,8.109509236E-1,-1.434532499E0,1.690448511E0
2.576203167E0,3.739773881E-1,1.088153969E0,-1.132786351E0,1.614665001E0
2.586263167E0,3.731003058E-1,1.215963578E0,-9.598912007E-1,1.593474938E0
2.596323167E0,3.891712318E-1,1.177251502E0,-8.724408281E-1,1.516089821E0
2.606383167E0,4.341654101E-1,1.252961251E0,-8.562487185E-1,1.578471845E0
2.616443167E0,5.217300957E-1,1.381353827E0,-8.117917532E-1,1.685036065E0
2.626503167E0,5.371492765E-1,1.490068184E0,-6.045699388E-1,1.695387080E0
2.636563167E0,5.732188495E-1,1.614129728E0,-3.408763003E-1,1.746479682E0
2.646623167E0,5.748387841E-1,1.666932424E0,-1.938644350E-2,1.763371535E0
2.656683167E0,4.983754393E-1,1.434823691E0,6.472505200E-1,1.651069453E0
2.666743167E0,3.198614073E-1,1.102201320E0,1.442471849E0,1.843335049E0
2.676803167E0,1.839015835E-1,8.764262903E-1,1.857984349E0,2.062534527E0
2.686863542E0,1.743613395E-1,7.999061179E-1,1.842168215E0,2.015895683E0
2.696923542E0,2.438370788E-1,7.715266567E-1,1.662358732E0,1.848822993E0
2.706983542E0,4.542496457E-1,9.343230808E-1,1.457392774E0,1.789775421E0
2.717043542E0,6.424153843E-1,1.264455122E0,1.479951916E0,2.049829739E0
2.727103542E0,6.404836835E-1,1.574507241E0,1.815230092E0,2.486835879E0
2.737163542E0,3.632071093E-1,1.788837515E0,2.314584063E0,2.947737852E0
2.747223542E0,1.668918870E-1,1.864768288E0,2.827098362E0,3.390825684E0
2.757283542E0,1.897578623E-1,1.872014158E0,3.150208483E0,3.669367594E0
2.767343542E0,3.133288980E-1,1.723259822E0,3.355542231E0,3.785163547E0
2.777403542E0,3.789119996E-1,1.353081662E0,3.361186548E0,3.643072783E0
2.787463542E0,2.978790193E-1,8.969734061E-1,3.307188681E0,3.439591571E0
2.797523542E0,1.043737496E-1,4.353401157E-1,3.468383553E0,3.497155897E0
2.807583542E0,-1.733994725E-1,9.942254663E-2,3.816394041E0,3.821624746E0
2.817643542E0,-4.101223902E-1,-1.954782665E-1,3.904224483E0,3.930570053E0
2.827703542E0,-6.483921158E-1,-4.595013955E-1,3.800156908E0,3.882363506E0
2.837763542E0,-8.356179144E-1,-5.574472278E-1,3.638723470E0,3.774826248E0
2.847823542E0,-9.648823109E-1,-5.872955096E-1,3.402846791E0,3.585426079E0
2.857883542E0,-9.525517025E-1,-6.061443016E-1,2.983493840E0,3.189984506E0
2.867943542E0,-9.232765941E-1,-6.261748159E-1,2.548649860E0,2.782112629E0
2.878003542E0,-8.788983469E-1,-6.083332068E-1,2.058025197E0,2.319051381E0
2.888063542E0,-8.019493543E-1,-6.249398839E-1,1.504257038E0,1.815616111E0
2.898123542E0,-7.570773829E-1,-6.031060883E-1,1.032308382E0,1.415119681E0
2.908183542E0,-6.852553752E-1,-5.690405023E-1,5.569584006E-1,1.050516389E0
2.918243542E0,-6.004113259E-1,-5.803349841E-1,3.805777252E-2,8.359012191E-1
2.928303542E0,-5.331130897E-1,-7.669032633E-1,-3.351963151E-1,9.923239145E-1
2.938363542E0,-4.245192584E-1,-9.248032290E-1,-7.535055381E-1,1.266194380E0
2.948423542E0,-3.147711137E-1,-9.779702067E-1,-1.162344611E0,1.551306409E0
2.958483542E0,-2.628951281E-1,-1.115880296E0,-1.585486557E0,1.956545504E0
2.968543542E0,-2.675126743E-1,-1.395427490E0,-1.955321778E0,2.417036236E0
2.978603542E0,-3.272892715E-1,-1.492264983E0,-2.333925483E0,2.789476870E0
2.988663542E0,-3.693405461E-1,-1.467518982E0,-2.723253567E0,3.115466962E0
2.998723542E0,-4.315944625E-1,-1.421193831E0,-3.045547416E0,3.388425113E0
3.008783542E0,-4.986659729E-1,-1.371412976E0,-3.282373683E0,3.592132834E0
3.018843542E0,-5.658330122E-1,-1.428485894E0,-3.301043842E0,3.641102772E0
3.028903542E0,-6.811976268E-1,-1.468130016E0,-3.198752067E0,3.584892012E0
3.038963542E0,-8.167814016E-1,-1.407249976E0,-3.059139268E0,3.464941185E0
3.049023542E0,-8.893408893E-1,-1.455731580E0,-2.916843182E0,3.379061379E0
3.059083542E0,-9.106330866E-1,-1.600670607E0,-2.876300928E0,3.415333957E0
3.069143542E0,-9.333944698E-1,-1.614124466E0,-2.919423559E0,3.464052099E0
3.079203542E0,-9.015546995E-1,-1.528666824E0,-2.816509055E0,3.329015829E0
3.089263542E0,-8.104840965E-1,-1.406248932E0,-2.649307923E0,3.106968459E0
3.099323542E0,-6.726761871E-1,-1.282139441E0,-2.507035811E0,2.895099887E0
3.109383542E0,-6.183101647E-1,-1.073228366E0,-2.162077569E0,2.491727514E0
3.119443542E0,-6.227581416E-1,-8.570053482E-1,-1.803365507E0,2.091509747E0
3.129503542E0,-5.615389632E-1,-6.999234080E-1,-1.689527820E0,1.913040260E0
3.139563542E0,-4.712361726E-1,-4.963771534E-1,-1.565016625E0,1.708136659E0
3.149623542E0,-3.899808519E-1,-3.233790922E-1,-1.454179144E0,1.539901323E0
3.159683542E0,-2.394869696E-1,-5.880135477E-2,-1.284746715E0,1.308199423E0
3.169743542E0,-1.191460821E-1,3.453213537E-1,-1.003341275E0,1.067771671E0
3.179803542E0,-6.499180198E-2,6.086486641E-1,-9.582305914E-1,1.137050129E0
3.189863542E0,-1.463512762E-1,7.644971341E-1,-1.038694711E0,1.297983538E0
3.199923542E0,-2.775885963E-1,8.620175815E-1,-8.585209465E-1,1.247873373E0
3.209983542E0,-3.450110127E-1,1.096279845E0,-5.716372508E-1,1.283600889E0
3.220043542E0,-3.021175198E-1,1.239220294E0,-4.320226979E-1,1.346694302E0
3.230103542E0,-3.903044953E-1,8.164508146E-1,-3.705240226E-1,9.778637855E-1
3.240163542E0,-4.701175546E-2,7.979610416E-1,3.446214420E-1,8.704687630E-1
3.250223542E0,3.643322597E-1,1.621493127E0,8.650043392E-1,1.873555567E0
3.260283542E0,5.130039304E-1,1.523313991E0,9.773965949E-1,1.881213079E0
3.270343542E0,5.846276443E-1,2.139016151E0,1.851046042E0,2.888520560E0
3.280403542E0,7.301557788E-1,2.355585617E0,1.721776384E0,3.007727543E0
3.290463542E0,1.005598812E0,2.043504807E0,5.811565179E-1,2.350507129E0
3.300523542E0,1.165071021E0,1.765455669E0,6.438369155E-3,2.115246004E0
3.310583542E0,1.040773469E0,1.456025695E0,-4.766550797E-1,1.852139385E0
3.320643542E0,7.472295754E-1,7.070958951E-1,-7.959621710E-1,1.300727651E0
3.330703542E0,-1.448377244E0,-6.859280974E-1,1.364344862E0,2.104692590E0
3.340763542E0,-3.934887574E0,-4.377591088E-1,4.766937883E0,6.196666042E0
3.350823542E0,-3.658587923E0,1.717174040E0,5.248384756E0,6.624159933E0
3.360883542E0,-7.079288310E-1,2.626477470E0,1.825093760E0,3.275746383E0
3.370943542E0,1.643280876E0,1.072460335E0,-3.131102121E-1,1.987103724E0
3.381003542E0,2.050600111E0,-1.260686007E-1,-1.072094007E0,2.317377756E0
3.391063542E0,1.249527619E0,-4.633895016E-1,-2.799029973E0,3.100099658E0
3.401123542E0,6.043945223E-2,-6.972804666E-3,2.764178814E0,2.764848289E0
3.411183542E0,-1.728497319E0,4.568850589E-1,1.958155339E1,1.966300282E1
3.421243542E0,-3.232822623E0,1.084374621E0,2.842272472E0,4.439090361E0
3.431303542E0,-5.026846619E0,1.500467165E-1,-1.112711222E1,1.221082828E1
3.441363542E0,-3.333310240E0,-2.273308276E-1,-2.264273450E0,4.036034034E0
3.451423542E0,3.793229127E-1,1.048312211E-1,5.165720329E0,5.180689334E0
3.461483542E0,-4.341339082E-1,-1.524725801E0,4.278047504E0,4.562340569E0
3.471543542E0,-1.064214299E0,-3.483374060E0,3.883288527E0,5.324131544E0
3.481603542E0,-3.409010779E-1,-3.251819642E0,1.386456692E0,3.551451350E0
3.491663542E0,3.635901750E-1,-1.783288800E0,2.794092584E0,3.334556961E0
3.501723542E0,1.327194138E0,-1.563883142E0,3.266750507E0,3.857309119E0
3.511783542E0,1.867154829E0,-1.385773737E0,3.407415805E0,4.125181023E0
3.521843542E0,2.051176646E0,-7.067658198E-1,2.211352640E0,3.097890259E0
3.531903542E0,2.227996301E0,-2.252990663E-1,3.130669427E-1,2.261136462E0
3.541963542E0,2.201924151E0,1.594486007E-1,-1.103343866E0,2.468048118E0
3.552023542E0,2.024585556E0,8.234075394E-1,-2.074534811E0,3.013410249E0
3.562083542E0,1.658653498E0,1.257611834E0,-3.215491476E0,3.830418304E0
3.572143542E0,1.106005592E0,1.276779006E0,-4.324241678E0,4.642464764E0
3.582203542E0,8.307469645E-1,1.111891618E0,-5.255238862E0,5.435437332E0
3.592263542E0,5.150784494E-1,7.200916243E-1,-4.776777577E0,4.858131511E0
3.602323542E0,-7.907297169E-1,2.519562301E-1,-3.082356223E0,3.192123950E0
3.612383542E0,-1.887881893E0,-4.258176327E-2,-1.771806330E0,2.589441816E0
3.622443542E0,-2.283870832E0,-9.705018505E-1,-2.844097388E0,3.774497287E0
3.632503542E0,-2.660961424E0,-1.562548515E0,-4.707042514E0,5.628367685E0
3.642563542E0,-2.551684273E0,-1.185615652E0,-5.928969668E0,6.562732542E0
3.652623542E0,-1.548526746E0,-8.832277715E-2,-6.355798869E0,6.542317269E0
3.662683542E0,-1.222583503E0,2.248546779E-3,-7.267138883E0,7.369262041E0
3.672743542E0,-1.288865201E0,6.734033614E-2,-5.671955888E0,5.816940074E0
3.682803542E0,-1.939786896E0,2.675510466E-2,-5.464490245E0,5.798632828E0
3.692872667E0,-2.550830871E0,-1.009931965E0,-5.679681230E0,6.307573192E0
3.702932667E0,-2.635038963E0,-1.519442841E0,-4.095574615E0,5.101555480E0
3.712992667E0,-2.599182959E0,-1.431776999E0,-2.987242489E0,4.210624078E0
3.723052667E0,-3.391039508E0,-2.047587917E0,-2.883816354E0,4.899812444E0
3.733112667E0,-4.149702875E0,-2.676303056E0,-2.313702303E0,5.453058807E0
3.743171667E0,-4.072693291E0,-1.998091822E0,-1.966364245E0,4.944268390E0
3.753231667E0,-3.666234620E0,-7.942226243E-1,-2.473438879E0,4.493324577E0
3.763292667E0,-3.084089922E0,-3.987412235E-1,-3.026967303E0,4.339716150E0
3.773351667E0,-2.415891752E0,-7.916457564E-2,-2.761426529E0,3.669915049E0
3.783411667E0,-1.819221987E0,2.096858311E-1,-2.196628182E0,2.859844778E0
3.793471667E0,-9.984951031E-1,-3.415674412E-1,-1.845176607E0,2.125638140E0
3.803531667E0,-2.367561007E-1,-1.036913649E0,-1.180808948E0,1.589198898E0
3.813591667E0,5.863353968E-2,-1.709056058E0,2.061511892E-1,1.722442688E0
3.823651667E0,-2.488323551E-1,-1.906186748E0,1.307926832E0,2.325110332E0
3.833711667E0,-3.961740035E-1,-1.616710981E0,1.793522889E0,2.446923087E0
3.843771667E0,-6.492046595E-1,-1.302109437E0,1.642530824E0,2.194279650E0
3.853831667E0,-9.943581980E-1,-1.001227799E0,1.838920087E0,2.317937104E0
3.863891667E0,-1.056404173E0,-6.462459683E-1,1.591978721E0,2.016933285E0
3.873951667E0,-7.760869002E-1,-9.213501558E-1,5.984572595E-1,1.345120098E0
3.884011667E0,-4.693595088E-1,-1.339469052E0,-7.102478367E-1,1.587113001E0
3.894071667E0,-4.399942070E-1,-1.281714641E0,-7.040623596E-1,1.527118571E0
3.904131667E0,-6.562692654E-1,-1.461009861E0,-8.876821804E-1,1.831179624E0
3.914191667E0,-8.140628117E-1,-2.190070237E0,-1.325596533E0,2.686319429E0
3.924251667E0,-1.085169550E0,-3.329545510E0,-7.017304900E-1,3.571539155E0
3.934311667E0,-1.422027644E0,-3.960165380E0,3.066607332E-1,4.218899532E0
3.944371667E0,-1.637230323E0,-2.523709146E0,8.084567937E-1,3.115001344E0
3.954431667E0,-1.316969551E0,-1.549649850E0,6.555143899E-1,2.136708349E0
3.964491667E0,-7.504047596E-1,-2.170126846E0,-4.120586957E-1,2.332884524E0
3.974551667E0,-2.080614746E-1,-2.305566487E0,-2.027605643E0,3.077354553E0
3.984611667E0,6.984124875E-1,-1.600314658E0,-1.704250524E0,2.439929682E0
3.994671667E0,1.589426411E0,-1.376110044E0,-9.064739621E-1,2.289465050E0
4.004731667E0,2.261453923E0,-1.519429978E0,-2.394379992E-2,2.724594393E0
4.014791667E0,3.070730204E0,-1.805540233E0,1.182353783E0,3.753307872E0
4.024851667E0,4.112105278E0,-2.302951028E0,2.496851131E0,5.333597175E0
4.034911667E0,4.823804979E0,-3.110287787E0,3.632676280E0,6.792593138E0
4.044971667E0,4.936133500E0,-3.657613485E0,4.714256809E0,7.743885820E0
4.055030667E0,4.972846413E0,-3.206477116E0,5.167331822E0,7.855699529E0
4.065090667E0,4.888785086E0,-2.678957984E0,4.093135157E0,6.915980835E0
4.075150667E0,4.505042263E0,-2.379628490E0,3.713906969E0,6.304850713E0
4.085210667E0,4.045706052E0,-2.221236774E0,3.497680442E0,5.790975629E0
4.095270667E0,4.092857999E0,-2.490101982E0,2.506278012E0,5.406803487E0
4.105330667E0,3.795482059E0,-2.528200977E0,2.349999479E0,5.130300361E0
4.115390667E0,3.442901972E0,-2.156487631E0,1.570528210E0,4.355521984E0
4.125450667E0,2.938366199E0,-1.818746900E0,8.831131661E-1,3.566752734E0
4.135510667E0,2.509001060E0,-1.715353802E0,2.126257380E-1,3.046758062E0
4.145570667E0,2.059900399E0,-1.859702845E0,-4.026685425E-1,2.804251466E0
4.155630667E0,1.501414706E0,-2.292679809E0,-6.072064118E-1,2.807013796E0
4.165690667E0,1.302676032E0,-3.046373627E0,-4.892517364E-1,3.349137857E0
4.175750667E0,2.409497822E0,-2.449301573E0,9.379658961E-1,3.561535901E0
4.185810667E0,1.620091549E0,-2.362391483E0,1.870883891E0,3.421373508E0
4.195870667E0,3.079728484E-3,-5.315472200E0,3.418381308E-1,5.326453558E0
4.205930667E0,1.604396453E0,-3.413401015E0,-5.174823859E0,6.403451916E0
4.215990667E0,7.213920450E-1,-2.489974220E0,-6.144602117E0,6.669071395E0
4.226050667E0,5.214950377E-1,6.951380467E-1,-3.414520757E0,3.523368555E0
4.236110667E0,6.431206316E-1,-7.752109873E-1,-5.111402619E0,5.209701811E0
4.246170667E0,2.009144229E0,-4.356152272E-1,-8.184666422E0,8.438909029E0
4.256230667E0,2.441835848E0,1.838318993E0,-6.265457633E0,6.971222158E0
4.266290667E0,2.451521761E0,1.256907536E0,-4.439991989E0,5.225256392E0
4.276350667E0,9.374957800E-1,2.732053041E-1,-2.244173062E-1,1.001949401E0
4.286410667E0,9.052074552E-1,1.014913500E0,4.218780127E0,4.432556340E0
4.296469667E0,4.029899274E0,1.437135680E0,2.483056380E0,4.946818786E0
4.306529667E0,4.592313711E0,-1.313265340E0,3.126037263E0,5.708425356E0
4.316589667E0,2.900506062E0,3.321183407E-1,3.189369625E0,4.323808115E0
4.326649667E0,1.876250466E0,9.670294815E-1,1.122329556E0,2.390624492E0
4.336709667E0,1.737654498E0,5.648193973E-1,8.275942920E-1,2.005835591E0
4.346769667E0,1.470648412E0,1.054664626E0,9.189658074E-1,2.029685291E0
4.356829667E0,1.703900861E0,9.258446181E-1,1.197572916E0,2.279176888E0
4.366889667E0,2.748741580E0,4.708306682E-1,9.710968047E-1,2.953013849E0
4.376949667E0,4.108875276E0,2.831958568E-1,4.968401067E-1,4.148482376E0
4.387009667E0,4.998867692E0,3.893818778E-1,9.133277759E-2,5.014841784E0
4.397069667E0,5.656548475E0,5.269347024E-1,-5.548114492E-1,5.708065922E0
4.407129667E0,6.681594615E0,7.938501567E-1,-1.339662887E0,6.860656042E0
4.417189667E0,7.036801856E0,1.086134925E0,-1.792782047E0,7.342365893E0
4.427249667E0,7.603691168E0,4.827490479E-1,-1.316418743E0,7.731890088E0
4.437309667E0,7.919368892E0,3.268149161E-1,-8.965059212E-1,7.976649328E0
4.447369667E0,8.205204767E0,4.090478182E-1,-5.320822987E-1,8.232606936E0
4.457429667E0,7.716381047E0,2.345624592E0,-6.195747712E0,1.017014164E1
4.467489667E0,6.920693110E0,2.587600502E0,-4.579338155E0,8.692640992E0
4.477549667E0,7.929429027E0,2.511444027E0,-5.971707551E0,1.023935969E1
4.487609667E0,7.426073806E0,1.641856055E0,-3.927061368E0,8.559443584E0
4.497669667E0,7.347701236E0,-1.402104426E0,-3.663748968E0,8.329325710E0
4.507728667E0,1.039628979E1,2.073077685E-1,-2.945091374E0,1.080737623E1
4.517788667E0,7.860154724E0,3.531041731E0,-6.108342948E0,1.056229812E1
4.527848667E0,6.596420563E0,1.347936405E0,-6.318857914E0,9.233507575E0
4.537908667E0,3.797523322E0,7.058589166E-1,-6.337881246E0,7.422139777E0
4.547968667E0,-1.974474333E0,1.466306269E-1,-3.968050350E0,4.434576982E0
4.558028667E0,-3.958222935E0,-1.233511072E0,-3.113653152E0,5.184970040E0
4.568088667E0,-3.618956373E0,-2.844566919E0,-2.657653069E0,5.315216461E0
4.578148667E0,-2.540710511E0,-2.383342642E0,-9.943076196E-1,3.622730971E0
4.588208667E0,6.927892202E-1,-1.990857646E0,9.270234168E-2,2.109991658E0
4.598268667E0,-1.995145994E0,-2.682329489E0,-1.868358479E0,3.829655654E0
4.608328667E0,-7.121853116E0,-2.966579599E0,-3.584352258E0,8.506995206E0
4.618388667E0,7.206985652E-2,-8.046890234E0,-5.923233549E0,9.992113499E0
4.628448667E0,-4.101639347E0,-2.356446619E0,-2.486864671E0,5.344228840E0
4.638508667E0,-7.196470605E0,-1.287952743E0,1.087128952E-1,7.311622934E0
4.648568667E0,-3.423381042E0,-4.640162061E0,-8.068058324E-1,5.822506107E0
4.658628667E0,-2.115225585E0,-3.176157841E0,-1.242124021E-2,3.816059773E0
4.668688667E0,-4.317513871E-1,-1.970473668E0,5.318513337E-1,2.086154735E0
4.678747667E0,2.092550667E0,-1.899686691E0,5.911263129E-1,2.887387770E0
4.688798042E0,2.942405455E0,-1.249555832E0,9.277952492E-2,3.198085002E0
4.698858042E0,2.089196119E0,-1.985878742E0,-1.918452744E0,3.462501370E0
4.708918042E0,4.323817754E0,-1.749973412E0,-4.121471348E0,6.224494597E0
4.718978042E0,5.827394176E0,1.149094820E0,1.771983793E0,6.198295601E0
4.729038042E0,4.738069595E0,1.686179119E-1,2.270773800E0,5.256819298E0
4.739098042E0,4.124459860E0,-7.178182268E-1,2.041205974E0,4.657569535E0
4.749158042E0,1.746978468E0,-5.895466876E-1,4.651017417E0,5.003145219E0
4.759218042E0,-8.790540290E-1,-1.022714270E0,3.083907489E0,3.365882628E0
4.769278042E0,-2.814710451E0,1.513867521E-1,1.465371007E0,3.176920689E0
4.779338042E0,-3.481247427E0,6.523019296E-1,2.931788081E-1,3.553946436E0
4.789398042E0,-3.526979086E0,1.428846082E0,6.822768036E-1,3.866094183E0
4.799458042E0,-3.242916087E0,2.184075379E0,1.129507232E0,4.069702274E0
4.809518042E0,-2.271866645E0,2.237012854E0,3.228350088E-1,3.204657080E0
4.819578042E0,-7.352312350E-1,2.809731840E0,3.199400523E-1,2.921903424E0
4.829638042E0,-9.770083398E-1,1.805764327E0,2.983003258E0,3.621275817E0
4.839698042E0,-2.026497011E0,-8.787260002E-1,3.876721519E-1,2.242574238E0
4.849757042E0,-4.356384991E0,-1.525902261E0,-1.885568004E0,4.986164317E0
4.859817042E0,-5.488087268E0,9.879628059E-1,-3.658996351E0,6.669589693E0
4.869877042E0,-3.879527598E0,1.819115275E0,-9.387452130E0,1.031911684E1
4.879937042E0,-6.145482123E-1,1.904185246E0,-9.564583588E0,9.771634979E0
4.889997042E0,-1.736010261E0,7.512496823E-1,-1.178676469E0,2.228763318E0
4.900057042E0,-2.421252480E0,-1.039131205E0,-2.731470659E0,3.795153382E0
4.910117042E0,-3.442669837E0,-1.093379626E0,-3.816356619E0,5.254715260E0
4.920177042E0,-3.352294103E0,-4.749520782E-1,2.053691241E-1,3.391995240E0
4.930237042E0,-3.843773628E0,2.231889524E0,-2.222380489E-1,4.450316427E0
4.940297042E0,-5.566728811E0,2.890604679E0,-6.148218620E-1,6.302544802E0
4.950357042E0,-9.061604344E0,2.961742782E0,-4.097401578E0,1.037657426E1
4.960417042E0,-7.543647864E0,1.705066064E0,-3.285120705E-1,7.740916843E0
4.970477042E0,-6.077870184E0,1.586993531E0,-5.788413128E-1,6.308257422E0
4.980537042E0,-4.766309307E0,2.843480214E0,-9.672423202E-1,5.633705871E0
4.990597042E0,-5.660274906E0,1.858695809E0,-1.827069827E0,6.231504334E0
5.000657042E0,-5.978527159E0,1.261433281E0,-1.159261374E0,6.219154914E0
5.010716042E0,-4.886123434E0,9.315712349E-1,-1.343815434E0,5.152462236E0
5.020776042E0,-5.268026138E0,-1.776487903E-1,-1.459505957E-1,5.273040874E0
5.030836042E0,-6.891721911E0,-8.974911770E-1,-5.609046865E-1,6.972512845E0
5.040896042E0,-7.042653165E0,-8.750836234E-1,-3.692527210E0,7.999968259E0
5.050956042E0,-6.093626091E0,-6.049524929E-1,-3.307034900E0,6.959506181E0
5.061016042E0,-6.980889611E0,-1.933350719E0,-1.493429748E0,7.396012248E0
5.071076042E0,-7.151549955E0,-2.317902651E0,-2.208572289E0,7.835504516E0
5.081136042E0,-2.521317635E0,1.098441853E-1,-3.115050344E0,4.009070592E0
5.091196042E0,-3.636598592E0,-2.852424700E0,-6.220127678E-1,4.663483234E0
5.101256042E0,-3.311042581E0,-1.638601203E0,1.782326056E0,4.101792662E0
5.111316042E0,-4.276024368E0,-3.498932916E0,2.421099283E0,6.032299535E0
5.121376042E0,-2.630344818E0,-2.251402852E0,4.073469801E0,5.346090617E0
5.131436042E0,1.576946699E0,-9.130664054E-1,4.811197797E0,5.144713344E0
5.141496042E0,5.306984382E0,-4.440370304E0,3.555474322E0,7.779612414E0
5.151555042E0,8.471299272E0,-5.283513073E0,2.221132693E0,1.022799356E1
5.161615042E0,1.023589014E1,-5.112184392E0,3.169551364E0,1.187240212E1
5.171675042E0,1.116371345E1,-4.710999033E0,5.395774351E0,1.326410158E1
5.181735042E0,1.352555471E1,-2.824387301E0,5.246023650E0,1.477966705E1
5.191795042E0,1.308413671E1,-2.127666998E0,4.121877730E-1,1.326240925E1
5.201855042E0,1.038552039E1,-4.409208445E0,-3.446868138E0,1.179750197E1
5.211915042E0,9.288326622E0,-4.993181859E0,-3.530047997E0,1.112052676E1
5.221975042E0,7.823919529E0,-3.629094860E0,-2.687093508E0,9.033521894E0
5.232035042E0,6.732118651E0,-2.922069424E0,-4.225058867E0,8.468236752E0
5.242095042E0,5.303666672E0,-2.919449286E0,-6.184424579E0,8.654430754E0
5.252155042E0,5.205871990E0,-1.509955734E0,-7.034959399E0,8.880975354E0
5.262215042E0,5.153920648E0,-1.129367484E0,-8.913004375E0,1.035760667E1
5.272275042E0,4.267985616E0,-2.669034675E-1,-1.039308668E1,1.123846918E1
5.282335042E0,4.017813079E0,3.610585499E-1,-1.059752405E1,1.133934307E1
5.292394042E0,3.036864885E0,7.232713401E-3,-1.040549214E1,1.083959719E1
5.302454042E0,1.033087231E0,-9.313407084E-1,-8.207984533E0,8.325002993E0
5.312514042E0,-1.198095072E0,-1.726627818E0,-3.011975042E0,3.672692348E0
5.322574042E0,-1.422491913E0,-1.112146264E0,-1.104441681E0,2.116635061E0
5.332634042E0,-1.045576884E0,-1.317635841E0,-3.011188884E0,3.449152610E0
5.342694042E0,-1.954576258E0,-1.395171382E0,-3.710643930E0,4.419926460E0
5.352754042E0,-1.300531273E0,-7.023131651E-1,-1.645804095E0,2.212079676E0
5.362814042E0,-1.976838362E-1,-9.435648975E-1,-5.296937111E-1,1.099985928E0
5.372874042E0,3.242953509E-1,-1.979637717E0,-7.043284079E-1,2.126078896E0
5.382934042E0,-9.661009437E-1,-2.190875691E0,5.491529524E-1,2.456594450E0
5.392994042E0,-2.184725590E0,-1.917480060E0,2.398049558E0,3.768341461E0
5.403054042E0,-2.012755469E0,-2.294429880E0,3.597029314E0,4.717437116E0
5.413114042E0,-1.192558343E0,-2.860163782E0,4.616094922E0,5.559771991E0
5.423173042E0,-6.632607812E-1,-3.356194488E0,5.706326991E0,6.653279194E0
5.433233042E0,-6.155703056E-1,-4.572647478E0,4.562163713E0,6.488556812E0
5.443293042E0,-1.265670758E0,-3.644098231E0,2.491019703E0,4.592009750E0
5.453353042E0,-2.515052344E0,-1.458937316E0,4.268642477E-1,2.938741137E0
5.463413042E0,-3.682811476E0,2.273783362E-1,1.051279161E0,3.836663805E0
5.473473042E0,-5.018263491E0,1.474945823E0,1.956948473E0,5.584628991E0
5.483533042E0,-6.290890097E0,2.167273698E0,2.171493341E0,6.999125433E0
5.493593042E0,-6.147847322E0,1.601868117E0,2.143796396E0,6.705063097E0
5.503653042E0,-5.312085493E0,4.489264137E-1,2.135181108E0,5.742715871E0
5.513713042E0,-4.452814933E0,-1.298643208E-1,2.397667735E0,5.058975799E0
5.523773042E0,-3.846309566E0,2.859288454E-2,2.436977397E0,4.553435369E0
5.533833042E0,-3.767880278E0,1.176391084E0,1.941615758E0,4.398941864E0
5.543893042E0,-3.623242967E0,2.154331178E0,1.641870966E0,4.523800690E0
5.553952042E0,-3.025762192E0,2.638916252E0,7.751412593E-1,4.089004744E0
5.564012042E0,-2.185352411E0,2.762238123E0,-2.022785783E-1,3.527979766E0
5.574072042E0,-1.434754109E0,2.553573216E0,-9.715002626E-1,3.085946902E0
5.584132042E0,-7.031686127E-1,1.903732379E0,-1.007902981E0,2.265946047E0
5.594192042E0,-3.652457410E-1,1.778344102E0,-5.466468358E-1,1.895978628E0
5.604252042E0,-7.249430591E-1,1.526502770E0,2.351608340E-1,1.706181046E0
5.614312042E0,-1.770364407E0,1.822978823E0,3.320094363E-1,2.562747000E0
5.624372042E0,-2.036881081E0,1.635948613E0,-3.544175747E-1,2.636441583E0
5.634432042E0,-2.568863100E0,2.315390979E0,-1.173677246E0,3.652069453E0
5.644492042E0,-2.350477781E0,2.528491584E0,-7.838360690E-1,3.540115037E0
5.654552042E0,-2.288151140E0,2.102000937E0,-6.913565062E-1,3.183083002E0
5.664612042E0,-1.762002888E0,2.611327334E0,-1.299332448E0,3.407631059E0
5.674672042E0,-1.708644707E0,3.353170601E0,-1.193667049E0,3.948171834E0
5.684732042E0,-2.239982947E0,3.598442001E0,-7.680318490E-1,4.307688633E0
5.694791292E0,-1.982259316E0,3.178777394E0,-4.947235974E-1,3.778720571E0
5.704851292E0,-1.000145187E0,1.684258894E0,8.007350704E-2,1.960466828E0
5.714911292E0,1.684629607E-1,3.475093818E-1,-1.049598507E-1,4.001988378E-1
5.724971292E0,1.339040451E0,3.056591052E-1,-2.878209678E-1,1.403316688E0
5.735031292E0,1.930157116E0,1.158538073E-1,-4.461892589E-1,1.984442857E0
5.745091292E0,2.000041283E0,5.076318741E-2,-7.251575788E-1,2.128049706E0
5.755151292E0,1.760061028E0,6.722163767E-1,-1.370299520E0,2.329680333E0
5.765211292E0,1.649485502E0,3.405044174E-1,-2.575393270E0,3.077238401E0
5.775271292E0,2.347492193E0,6.546185964E-1,-3.118177435E0,3.957559301E0
5.785331292E0,3.219233109E0,1.370509581E0,-3.199982321E0,4.741481328E0
5.795391292E0,3.350307804E0,8.674771267E-1,-2.777758387E0,4.437681895E0
5.805451292E0,3.875443903E0,-1.747703522E-1,-2.859827860E0,4.819566942E0
5.815511292E0,4.099852438E0,-6.541362011E-1,-2.581084950E0,4.888627998E0
5.825571292E0,4.214722159E0,-1.204021810E0,-3.129110559E0,5.385618283E0
5.835630292E0,4.614389289E0,-1.358090095E0,-2.930038886E0,5.632239794E0
5.845690292E0,4.656032574E0,-1.429852388E0,-2.700150633E0,5.569015229E0
5.855750292E0,4.401341309E0,-9.539130074E-1,-2.361781619E0,5.085250019E0
5.865810292E0,3.639840873E0,-3.680681920E-1,-2.504759490E0,4.433704532E0
5.875870292E0,3.212996469E0,1.102790719E-1,-3.132700750E0,4.488799591E0
5.885930292E0,4.483857801E0,-3.608965820E-1,-2.990663988E0,5.401786576E0
5.895990292E0,6.363463984E0,-1.178070697E0,-2.160410821E0,6.822675381E0
5.906050292E0,6.318973104E0,-1.756771384E0,-1.112112643E0,6.652252349E0
5.916110292E0,4.711399859E0,-2.321289065E0,2.849450514E-1,5.259930156E0
5.926170292E0,3.337067953E0,-2.746730137E0,2.305753598E0,4.898678253E0
5.936230292E0,2.666833198E0,-3.293559991E0,3.284124924E0,5.361437609E0
5.946290292E0,1.654424645E0,-3.669830073E0,4.026959001E0,5.693959296E0
5.956350292E0,1.578221977E-1,-3.495224612E0,4.411070491E0,5.630190566E0
5.966410292E0,-4.595297545E-1,-3.048517216E0,3.810720488E0,4.901654359E0
5.976470292E0,-5.908593875E-1,-2.756830033E0,3.435711943E0,4.444473333E0
5.986530292E0,-5.058905733E-1,-3.757354705E0,3.525243632E0,5.176966517E0
5.996589292E0,-1.290807939E-1,-4.499615462E0,3.296439160E0,5.579400711E0
6.006649292E0,-1.759894967E-1,-3.470459315E0,3.266314305E0,4.769053291E0
6.016709292E0,-1.593518293E-1,-2.916929721E0,1.707003101E0,3.383449658E0
6.026769292E0,7.135889357E-1,-2.354100716E0,2.494539142E-1,2.472494005E0
6.036829292E0,1.198067005E0,-1.834123031E0,-4.774888927E-1,2.242179182E0
6.046889292E0,1.415484610E0,-1.214556153E0,-1.273464512E0,2.258418737E0
6.056949292E0,1.192660670E0,-3.294017243E-1,-2.031331488E0,2.378497968E0
6.067009292E0,7.152208936E-1,3.508943349E-1,-2.363113030E0,2.493786469E0
6.077069292E0,3.000522101E-1,1.037878439E0,-1.887594649E0,2.174910697E0
6.087129292E0,6.772479057E-2,1.154392397E0,-1.652868116E0,2.017221224E0
6.097189292E0,-1.880780303E-1,1.571097144E0,-8.119010961E-1,1.778455221E0
6.107249292E0,-2.092712635E-1,2.391656798E0,2.776743311E-1,2.416799481E0
6.117309292E0,-1.042646259E-1,2.775928794E0,9.198284179E-1,2.926215320E0
6.127369292E0,1.074542820E-2,3.318810022E0,1.305466323E0,3.566350761E0
6.137429292E0,-1.110415488E-1,3.448096054E0,1.614269477E0,3.808879437E0
6.147489292E0,-3.211863863E-1,2.683856197E0,1.872080231E0,3.287997745E0
6.157549292E0,-2.227233678E-1,1.741578564E0,2.987809669E0,3.465502592E0
6.167609292E0,-1.019777799E0,1.329834595E0,4.494391560E0,4.796661579E0
6.177669292E0,-2.658244223E0,2.405870794E0,4.669737863E0,5.887353254E0
6.187729292E0,-3.712308340E0,3.515032640E0,4.148643944E0,6.583914811E0
6.197789292E0,-3.520095744E0,4.139568481E0,3.391905481E0,6.405632212E0
6.207849292E0,-3.253890726E0,4.643027197E0,3.134322767E0,6.478386035E0
6.217908292E0,-2.822627581E0,4.056978314E0,2.686282207E0,5.625158806E0
6.227968292E0,-1.936452813E0,2.877792553E0,2.548263944E0,4.304089753E0
6.238028292E0,-1.464241033E0,2.418034757E0,2.966750045E0,4.097865263E0
6.248088292E0,-1.241680217E0,2.272401665E0,2.895066397E0,3.884197283E0
6.258148292E0,-6.643512869E-1,1.422088455E0,2.681948251E0,3.107498129E0
6.268208292E0,-7.742713398E-1,9.230186588E-1,2.280149810E0,2.578864616E0
6.278268292E0,-4.727468008E-1,1.536317321E0,1.771915088E0,2.392371946E0
6.288328292E0,2.651110035E-1,1.566408847E0,8.073458228E-1,1.782057181E0
6.298388292E0,2.939126337E-1,1.910654313E0,-7.074955523E-2,1.934422405E0
6.308448292E0,8.256970167E-2,1.986348274E0,-8.885808975E-1,2.177607226E0
6.318508292E0,-9.681761205E-2,2.019784407E0,-1.477766227E0,2.504535031E0
6.328568292E0,-2.661050302E-1,2.064676990E0,-1.794352609E0,2.748345729E0
6.338628292E0,-4.973822898E-1,2.455441734E0,-2.255302652E0,3.370900963E0
6.348688292E0,-5.590879565E-1,2.449711463E0,-3.094200928E0,3.985943423E0
6.358748292E0,-2.638363105E-1,2.093200293E0,-3.098309766E0,3.748415728E0
6.368808292E0,1.892860651E-1,1.594790647E0,-3.168643000E0,3.552391431E0
6.378868292E0,-1.125179708E-1,4.805604351E-1,-3.347030439E0,3.383224998E0
6.388928292E0,-9.873315990E-2,-1.167813511E0,-3.198915204E0,3.406845332E0
6.398988292E0,2.350861359E-1,-2.173206575E0,-2.410232525E0,3.253815165E0
6.409048292E0,4.544935477E-1,-2.806969323E0,-1.163431316E0,3.072330319E0
6.419108292E0,7.494861621E-1,-3.594412685E0,-2.604846865E-2,3.671812983E0
6.429168292E0,1.528571514E0,-4.181834494E0,9.969186938E-1,4.562687530E0
6.439228292E0,2.008792226E0,-5.016674802E0,9.580048889E-1,5.488173252E0
6.449288292E0,1.831848464E0,-5.238816372E0,-4.593952686E-2,5.550042902E0
6.459348292E0,1.479273639E0,-4.888105640E0,-1.388416387E0,5.292402792E0
6.469408292E0,1.384280943E0,-4.334856713E0,-2.948082517E0,5.422029784E0
6.479468292E0,1.530898706E0,-3.465345924E0,-4.393801617E0,5.801531339E0
6.489528292E0,1.739085896E0,-2.666726194E0,-5.742944595E0,6.566373502E0
6.499588292E0,2.110333512E0,-2.432308395E0,-6.453740315E0,7.212516601E0
6.509648292E0,2.624940822E0,-2.760354735E0,-5.807780861E0,6.945515899E0
6.519708292E0,2.363883108E0,-3.035441088E0,-4.983053312E0,6.295448059E0
6.529768292E0,1.662112857E0,-2.750691041E0,-2.968296049E0,4.374894489E0
6.539828292E0,1.447711831E0,-2.176340098E0,-1.149333679E0,2.855397288E0
6.549888292E0,9.107038379E-1,-1.635531122E0,-4.863716903E-1,1.934140882E0
6.559948292E0,-4.949124259E-1,-1.028443372E0,6.155691361E-1,1.296749567E0
6.570008292E0,-1.244055356E0,-6.832418865E-1,2.687443464E0,3.039217922E0
6.580068292E0,-1.720701665E0,-7.300470936E-1,4.061907809E0,4.471339624E0
6.590128292E0,-1.903476271E0,-8.646652007E-1,4.090686635E0,4.593972678E0
6.600188292E0,-9.929431719E-1,-1.086958213E0,3.308744625E0,3.621492137E0
6.610248292E0,-1.400653732E-1,-1.345522090E0,2.636376514E0,2.963195762E0
6.620308292E0,5.341489971E-1,-1.520003005E0,2.311166658E0,2.817306445E0
6.630368292E0,1.109294577E0,-1.560826510E0,2.101234075E0,2.842868004E0
6.640428292E0,1.101935272E0,-1.634615448E0,2.227954347E0,2.974896566E0
6.650488292E0,1.334680182E0,-1.631536889E0,1.781376468E0,2.759816286E0
6.660548292E0,1.395781247E0,-1.284637372E0,1.652111194E0,2.515545640E0
6.670608292E0,1.408210673E0,-6.184722787E-1,1.594031971E0,2.215062795E0
6.680668292E0,1.432957844E0,1.313261247E-1,1.137700059E0,1.834387134E0
6.690728292E0,9.384202248E-1,8.653651124E-1,8.641904068E-1,1.541529875E0
6.700788292E0,4.609336710E-1,1.619459465E0,9.466142204E-1,1.931628145E0
6.710848292E0,1.195866698E-1,2.268236108E0,8.805395141E-1,2.436092332E0
6.720908292E0,-6.283295149E-1,2.388971171E0,8.806900799E-1,2.622517160E0
6.730968292E0,-1.374854062E0,2.286379434E0,1.114255940E0,2.891249022E0
6.741028292E0,-2.122676691E0,2.110998048E0,1.397608502E0,3.303843007E0
6.751088292E0,-2.554502923E0,2.141363223E0,1.623756876E0,3.707763211E0
6.761148292E0,-2.975068586E0,2.176990308E0,1.845783841E0,4.122770656E0
6.771208292E0,-3.305102980E0,2.126514804E0,2.089700149E0,4.451136667E0
6.781268292E0,-3.301263113E0,2.056380376E0,2.246098842E0,4.491324793E0
6.791328292E0,-3.034289187E0,1.980419197E0,2.222625780E0,4.250768921E0
6.801388292E0,-2.639369996E0,1.804735510E0,1.980917380E0,3.761300028E0
6.811448292E0,-2.235529123E0,1.474613408E0,1.666036923E0,3.154006055E0
6.821508292E0,-2.040958344E0,1.407216062E0,1.975508998E0,3.169921735E0
6.831568292E0,-1.753799829E0,1.759129567E0,1.857712745E0,3.101845792E0
6.841628292E0,-1.432804062E0,2.055858219E0,1.294956830E0,2.820708012E0
6.851688292E0,-1.587865205E0,2.538375133E0,5.994878313E-1,3.053530724E0
6.861748292E0,-1.820779685E0,2.727026190E0,-2.004191637E-1,3.285129882E0
6.871808292E0,-1.600148451E0,2.651631022E0,-8.509227821E-1,3.211805057E0
6.881868292E0,-1.028852677E0,2.576039972E0,-1.134496077E0,2.996931951E0
6.891928292E0,-9.146214724E-3,2.153319025E0,-1.662787918E0,2.720612089E0
6.901988292E0,8.467838305E-1,1.476158828E0,-1.692597608E0,2.400202992E0
6.912048292E0,1.857965053E0,1.203397327E0,-6.302912557E-1,2.301622543E0
6.922108292E0,2.222531055E0,1.808118709E0,-8.843875667E-1,2.998512785E0
6.932168292E0,2.097344214E0,2.087153102E0,-1.093025869E0,3.154325027E0
6.942228292E0,1.889838225E0,2.099624044E0,-1.131993761E0,3.043241613E0
6.952288292E0,1.594707032E0,2.237722414E0,-1.618967422E0,3.189286383E0
6.962348292E0,1.447897480E0,2.266777228E0,-1.871540241E0,3.276789433E0
6.972408292E0,1.456126559E0,1.619685752E0,-1.779485478E0,2.812517566E0
6.982468292E0,1.844900326E0,1.115713066E0,-1.419271851E0,2.581241067E0
6.992528292E0,2.384909695E0,7.130486530E-1,-1.549653651E0,2.932176508E0
7.002588292E0,2.479492502E0,3.386327237E-1,-4.937400591E-1,2.550751739E0
7.012648292E0,2.371713114E0,1.022584462E-1,3.009705153E-1,2.392919376E0
7.022708292E0,2.160052679E0,-5.349980128E-1,5.215997028E-1,2.285632669E0
7.032768292E0,2.060311459E0,-1.086391618E0,5.921498680E-1,2.403283487E0
7.042828292E0,2.243550626E0,-1.392774609E0,8.706387162E-2,2.642143190E0
7.052888292E0,2.737466686E0,-1.982027181E0,-8.187397072E-1,3.477425817E0
7.062948292E0,3.208330099E0,-2.231413268E0,-1.841315691E0,4.320072993E0
7.073008292E0,3.641470200E0,-2.071878421E0,-2.956731718E0,5.127889220E0
7.083068292E0,3.376665882E0,-1.199147571E0,-4.199898883E0,5.520776938E0
7.093128292E0,2.791880583E0,-2.085602421E-1,-5.277209190E0,5.973862352E0
7.103188292E0,2.903688409E0,-2.200891972E-2,-5.655465571E0,6.357372224E0
7.113248292E0,3.001529869E0,-5.169821566E-1,-5.500983887E0,6.287867352E0
7.123308292E0,2.872588238E0,-7.483056092E-1,-4.842381583E0,5.679822521E0
7.133368292E0,2.973319100E0,-8.562797087E-1,-3.293828378E0,4.519197583E0
7.143428292E0,3.048746427E0,-1.143283857E0,-1.691442491E0,3.669186620E0
7.153488292E0,2.828288856E0,-1.249952273E0,-2.483277404E-1,3.102138811E0
7.163548292E0,2.541082394E0,-1.295976292E0,1.167986004E0,3.082344171E0
7.173608292E0,2.024050243E0,-1.399766124E0,2.607155053E0,3.585161372E0
7.183668292E0,1.280338499E0,-1.270581250E0,3.575972321E0,4.005149364E0
7.193728292E0,6.114570817E-1,-1.160108051E0,4.015568040E0,4.224277114E0
7.203788292E0,-5.711443305E-2,-1.338601325E0,4.106557440E0,4.319598312E0
7.213848292E0,-4.656555900E-1,-1.623936678E0,3.978337941E0,4.322172861E0
7.223908292E0,-7.003332978E-1,-2.375863468E0,3.679719468E0,4.435710689E0
7.233968292E0,-4.016583994E-1,-3.631467660E0,3.154791530E0,4.827172717E0
7.244028292E0,3.554873228E-1,-4.739539000E0,2.440633076E0,5.342872914E0
7.254088292E0,8.600774753E-1,-5.273083395E0,1.655985852E0,5.593516863E0
7.264148292E0,1.130217377E0,-5.262784109E0,7.860531870E-1,5.439868336E0
7.274208292E0,1.079475824E0,-4.553725596E0,-3.447752237E-2,4.680050594E0
7.284268292E0,8.037082699E-1,-3.796598293E0,-6.261066958E-1,3.930917854E0
7.294329292E0,3.709312811E-1,-2.965411910E0,-8.408372122E-1,3.104555528E0
7.304389292E0,-1.690161073E-1,-2.005541174E0,-8.842060107E-1,2.198313471E0
7.314449292E0,-5.690565822E-1,-1.028564994E0,-7.721558172E-1,1.406412439E0
7.324509292E0,-8.578631347E-1,-7.824977875E-2,-5.872765061E-1,1.042566967E0
7.334569292E0,-1.082094792E0,9.291494644E-1,-4.526268241E-1,1.496368573E0
7.344629292E0,-1.222879080E0,1.806052303E0,-2.452316397E-1,2.194856880E0
7.354689292E0,-1.275374213E0,2.370484614E0,5.392653108E-2,2.692338159E0
7.364749292E0,-1.302875130E0,2.821561049E0,3.845254728E-1,3.131541186E0
7.374809292E0,-1.374367281E0,3.227753672E0,6.166725057E-1,3.561960720E0
7.384869292E0,-1.405592290E0,3.633643994E0,8.831915188E-1,3.994882429E0
7.394929292E0,-1.472206987E0,4.030511477E0,1.037883702E0,4.414704832E0
7.404989292E0,-1.521091172E0,4.310615326E0,1.188238128E0,4.723032150E0
7.415049292E0,-1.583126037E0,4.525881740E0,1.309347705E0,4.970340530E0
7.425109292E0,-1.624181677E0,4.492653767E0,1.414932048E0,4.982362561E0
7.435169292E0,-1.807697417E0,4.366902378E0,1.593931399E0,4.987807498E0
7.445229292E0,-2.031713896E0,4.200503485E0,1.848334104E0,5.018807611E0
7.455289292E0,-2.137932662E0,4.032120631E0,2.143374373E0,5.042103385E0
7.465349292E0,-2.233805656E0,3.787598843E0,2.458384053E0,5.037801590E0
7.475409292E0,-2.203215655E0,3.398376009E0,2.561519582E0,4.792129098E0
7.485469292E0,-2.064121212E0,3.005751851E0,2.532652463E0,4.439534780E0
7.495529292E0,-1.741004367E0,2.766490803E0,2.431475751E0,4.073897630E0
7.505589292E0,-1.338576474E0,2.503853756E0,2.369644369E0,3.698146164E0
7.515649292E0,-8.492639270E-1,2.315437757E0,2.035763678E0,3.197942303E0
7.525709292E0,-2.064903277E-1,2.130285088E0,1.637437314E0,2.694801249E0
7.535769292E0,3.225151661E-1,1.834859195E0,1.278820854E0,2.259669683E0
7.545829292E0,6.479919469E-1,1.624153610E0,8.510107827E-1,1.944733366E0
7.555889292E0,9.557721296E-1,1.621921143E0,3.273394114E-1,1.910832187E0
7.565949292E0,1.236803347E0,1.564535984E0,-1.685272801E-1,2.001463666E0
7.576009292E0,1.294506887E0,1.486048223E0,-5.845753849E-1,2.055678911E0
7.586069292E0,1.237734516E0,1.390155056E0,-1.179671080E0,2.203665508E0
7.596129292E0,1.066512547E0,1.169530254E0,-1.324625310E0,2.063948216E0
7.606189292E0,8.616629478E-1,7.876573706E-1,-1.325653251E0,1.766415498E0
7.616249292E0,7.415278092E-1,2.212112778E-1,-1.703356777E0,1.870888086E0
7.626309292E0,9.151208246E-1,-4.634316015E-1,-2.007197691E0,2.254120126E0
7.636369292E0,1.082622503E0,-9.804973733E-1,-2.268619978E0,2.698162928E0
7.646430292E0,8.779997760E-1,-1.556055182E0,-2.749788816E0,3.279257518E0
7.656490292E0,8.363342714E-1,-2.440993264E0,-3.045617582E0,3.991702593E0
7.666550292E0,9.592351431E-1,-3.179243417E0,-2.799083183E0,4.343108038E0
7.676610292E0,8.999715659E-1,-3.813972124E0,-2.693033987E0,4.754867426E0
7.686670292E0,6.988963446E-1,-4.128869830E0,-3.317748753E0,5.342609752E0
7.696730917E0,5.635727710E-1,-4.190822250E0,-4.430310169E0,6.124398223E0
7.706790917E0,3.180689433E-1,-3.989050625E0,-5.501237072E0,6.802742246E0
7.716850917E0,9.984266907E-2,-3.578288988E0,-6.455402679E0,7.381486597E0
7.726910917E0,2.062935689E-1,-2.917447200E0,-7.221727068E0,7.791495174E0
7.736970917E0,1.165811132E0,-2.201224093E0,-7.063805467E0,7.490116874E0
7.747030917E0,1.857524465E0,-2.377878419E0,-5.300448364E0,6.099135658E0
7.757090917E0,1.792065178E0,-2.925538577E0,-3.660461079E0,5.016896339E0
7.767150917E0,1.347292919E0,-3.129799946E0,-2.619944960E0,4.298250517E0
7.777210917E0,1.272377515E0,-3.106991712E0,-7.100689119E-1,3.431696359E0
7.787270917E0,1.142242468E0,-2.915000140E0,1.147524843E0,3.334480010E0
7.797330917E0,1.364798605E-2,-2.210643958E0,2.568594713E0,3.388924870E0
7.807390917E0,-1.183268287E0,-1.854743237E0,4.446629164E0,4.961119554E0
7.817450917E0,-1.431502472E0,-1.929491703E0,6.008251480E0,6.470797741E0
7.827510917E0,-1.152407268E0,-1.835785394E0,6.147214653E0,6.518159135E0
7.837570917E0,-8.511250958E-1,-1.648379794E0,4.881945598E0,5.222543700E0
7.847630917E0,3.513621122E-2,-1.630939888E0,3.594283462E0,3.947160128E0
7.857690917E0,1.074575857E0,-1.603932184E0,2.884676772E0,3.471119676E0
7.867750917E0,1.755941957E0,-1.614786955E0,2.275480809E0,3.296768414E0
7.877810917E0,1.964288776E0,-1.785883502E0,2.142440280E0,3.411430877E0
7.887870917E0,2.080006343E0,-1.954050593E0,2.500566452E0,3.794413352E0
7.897930917E0,2.179767443E0,-1.800263559E0,2.775188536E0,3.961566155E0
7.907990917E0,2.099604163E0,-1.524040507E0,3.014739021E0,3.977397198E0
7.918051917E0,1.978072709E0,-1.230010344E0,2.906085183E0,3.724382926E0
7.928111917E0,1.947530948E0,-5.971813971E-1,2.555843689E0,3.268308336E0
7.938171917E0,1.809761776E0,3.140843582E-1,2.036696309E0,2.742629856E0
7.948231917E0,1.481002369E0,1.174208027E0,1.546870376E0,2.442322760E0
7.958291917E0,9.511788493E-1,1.879156532E0,1.300939701E0,2.475563488E0
7.968351917E0,1.997841561E-1,2.288888474E0,1.139716471E0,2.564737372E0
7.978411917E0,-8.109480000E-1,2.526868982E0,1.292196068E0,2.951690056E0
7.988471917E0,-1.854056774E0,2.624271900E0,1.525483600E0,3.556884836E0
7.998531917E0,-2.552265778E0,2.719155253E0,1.595301109E0,4.056211474E0
8.008591917E0,-2.956087940E0,3.057238923E0,1.502770968E0,4.510375408E0
8.018651917E0,-3.214098669E0,3.170866111E0,1.364476131E0,4.716631983E0
8.028711917E0,-3.330862888E0,3.070769380E0,1.426720619E0,4.749716191E0
8.038771917E0,-3.343672383E0,2.995744926E0,1.531525235E0,4.743437806E0
8.048831917E0,-3.211356325E0,2.882211878E0,1.488986157E0,4.564760074E0
8.058891917E0,-2.933042309E0,2.678396067E0,1.321181885E0,4.185936484E0
8.068951917E0,-2.595120022E0,2.534910073E0,1.000898601E0,3.763271850E0
8.079011917E0,-2.279373300E0,2.278957563E0,6.357236114E-1,3.285321099E0
8.089071917E0,-1.938456069E0,2.053827481E0,3.515310967E-1,2.845943318E0
8.099131917E0,-1.570807123E0,1.879103322E0,1.161955771E-1,2.451931019E0
8.109191917E0,-1.113318631E0,1.746308377E0,-2.302589670E-1,2.083768344E0
8.119251917E0,-5.419532758E-1,1.708150032E0,-7.315895891E-1,1.935642842E0
8.129311917E0,2.262135708E-1,1.727828836E0,-1.215144968E0,2.124415769E0
8.139371917E0,9.545351511E-1,1.620833561E0,-1.604569530E0,2.472424350E0
8.149431917E0,1.615647665E0,1.578762844E0,-2.094110119E0,3.080277047E0
8.159491917E0,1.838524815E0,1.485848249E0,-2.304561936E0,3.301351879E0
8.169552917E0,1.811689019E0,1.520425758E0,-2.366556163E0,3.345818234E0
8.179612917E0,1.542673244E0,1.750148243E0,-2.479836903E0,3.404768814E0
8.189672917E0,1.139652736E0,1.945370402E0,-2.392454065E0,3.287417043E0
8.199732917E0,7.185678399E-1,1.937861992E0,-2.304981766E0,3.095898865E0
8.209792917E0,4.215933117E-1,1.598166829E0,-1.995965189E0,2.591477411E0
8.219852917E0,3.774137968E-1,1.165451821E0,-1.507273909E0,1.942316595E0
8.229912917E0,7.785035545E-1,7.840595788E-1,-1.047723104E0,1.522675576E0
8.239972917E0,1.320332869E0,1.916530180E-1,-6.709273580E-1,1.493369775E0
8.250032917E0,1.835494495E0,-4.980997431E-1,-3.495401198E-1,1.933732580E0
8.260092917E0,2.252378167E0,-1.080103523E0,-1.541010296E-1,2.502714158E0
8.270152917E0,2.802318447E0,-1.644550452E0,-4.759004965E-1,3.283902580E0
8.280212917E0,2.885438080E0,-1.973067493E0,-1.153147525E0,3.680828366E0
8.290272917E0,2.868596344E0,-1.991031893E0,-1.986274306E0,4.017255109E0
8.300332917E0,2.832401495E0,-1.843696677E0,-2.832450027E0,4.409590550E0
8.310392917E0,2.802200626E0,-1.592651736E0,-3.541965792E0,4.788986278E0
8.320452917E0,2.922925164E0,-1.132651865E0,-4.239523416E0,5.272565842E0
8.330512917E0,3.192780890E0,-7.824644583E-1,-4.633498574E0,5.681145086E0
8.340572917E0,3.375240624E0,-1.067928450E0,-4.505263288E0,5.729757214E0
8.350632917E0,3.204260437E0,-1.242978299E0,-3.807529955E0,5.129284975E0
8.360692917E0,3.026085251E0,-1.152304941E0,-2.800688244E0,4.281221001E0
8.370752917E0,2.976860173E0,-1.270743803E0,-1.502881480E0,3.568632658E0
8.380812917E0,2.541138234E0,-1.567873574E0,-1.330601165E-1,2.988865348E0
8.390872917E0,2.842071035E0,-1.141843688E0,8.030220991E-1,3.166388995E0
8.400933917E0,2.598163497E0,-1.094903995E0,2.046628682E0,3.483957129E0
8.410993917E0,1.990764091E0,-1.162101367E0,2.956451052E0,3.748896381E0
8.421053917E0,1.504348547E0,-1.230033733E0,3.673311505E0,4.155630511E0
8.431113917E0,1.077732477E0,-1.408494263E0,4.265651992E0,4.619648287E0
8.441173917E0,6.939399523E-1,-1.688906845E0,4.659695562E0,5.004669992E0
8.451233917E0,4.400181806E-1,-2.012154375E0,4.741557751E0,5.169598740E0
8.461293917E0,1.864185905E-1,-2.556214403E0,4.642937150E0,5.303380935E0
8.471353917E0,-3.687926620E-2,-3.297579367E0,4.290681291E0,5.411592714E0
8.481413917E0,-3.004442659E-1,-3.934492010E0,3.739916261E0,5.436678009E0
8.491473917E0,-3.515895689E-1,-4.271365891E0,3.157191228E0,5.323160551E0
8.501533917E0,-1.966912714E-1,-4.095033163E0,2.246282737E0,4.674801621E0
8.511593917E0,-1.166431814E-2,-3.394851893E0,1.176693678E0,3.593015925E0
8.521653917E0,-9.618669748E-3,-2.423995993E0,3.183037090E-1,2.444824400E0
8.531713917E0,-9.857703924E-2,-1.749942421E0,-2.113236362E-1,1.765410318E0
8.541773917E0,-2.562416545E-1,-9.827877277E-1,-6.055399919E-1,1.182459380E0
8.551833917E0,-3.775327876E-1,-6.783179462E-2,-7.743669418E-1,8.641622062E-1
8.561893917E0,-4.267192733E-1,6.753896606E-1,-8.817320538E-1,1.189828537E0
8.571954917E0,-4.690814736E-1,1.404003602E0,-9.544778484E-1,1.761332310E0
8.582014917E0,-5.078640085E-1,1.984697020E0,-7.985010320E-1,2.198761472E0
8.592074917E0,-7.281993735E-1,2.512242756E0,-5.724929908E-1,2.677570955E0
8.602134917E0,-1.043286237E0,2.946974469E0,-2.529721838E-1,3.136415091E0
8.612194917E0,-1.158262962E0,3.145568717E0,2.588158911E-1,3.362017446E0
8.622254917E0,-1.217708387E0,3.279025567E0,5.741842979E-1,3.544645257E0
8.632314917E0,-1.307590909E0,3.656350486E0,9.938108987E-1,4.008285540E0
8.642374917E0,-1.228376048E0,4.035168200E0,1.265658187E0,4.403791634E0
8.652434917E0,-1.224344392E0,3.923002231E0,1.379401734E0,4.334941158E0
8.662494917E0,-1.319193247E0,3.784141384E0,1.536174064E0,4.291832662E0
8.672554917E0,-1.358492676E0,3.673888625E0,1.756662919E0,4.292880686E0
8.682614917E0,-1.523348489E0,3.627520790E0,1.820837865E0,4.335314086E0
8.692674708E0,-1.751217991E0,3.487346073E0,1.911816739E0,4.345502311E0
8.702734708E0,-1.964367128E0,3.343038545E0,2.164695368E0,4.440782697E0
8.712794708E0,-2.139276937E0,3.107006915E0,2.246517795E0,4.390539828E0
8.722855708E0,-2.201450088E0,2.847323881E0,2.322984758E0,4.283677621E0
8.732915708E0,-2.162464947E0,2.616320856E0,2.442299532E0,4.181652362E0
8.742975708E0,-1.939173230E0,2.522212259E0,2.323661281E0,3.939714361E0
8.753035708E0,-1.543504426E0,2.512168497E0,1.970520446E0,3.546314608E0
8.763095708E0,-1.165583676E0,2.416373563E0,1.469170820E0,3.058743108E0
8.773155708E0,-7.607113543E-1,2.327178381E0,8.389970934E-1,2.588118449E0
8.783215708E0,-3.147620505E-1,2.184077718E0,1.766932091E-1,2.213705292E0
8.793275708E0,6.141096711E-2,1.896153218E0,-1.943152553E-1,1.907072823E0
8.803335708E0,1.286554089E-1,1.590800507E0,-4.469944936E-1,1.657408382E0
8.813395708E0,9.156710476E-2,1.366860918E0,-8.548529881E-1,1.614765288E0
8.823455708E0,2.524897885E-1,1.091447121E0,-1.394045209E0,1.788398713E0
8.833515708E0,4.721954083E-1,5.897349679E-1,-1.998926219E0,2.136928138E0
8.843575708E0,5.906579509E-1,-4.274712253E-1,-2.772823045E0,2.867081461E0
8.853635708E0,4.789831486E-1,-1.353797654E0,-3.091644525E0,3.408879407E0
8.863695708E0,3.808215541E-1,-1.598699511E0,-3.152525734E0,3.555177026E0
8.873756708E0,2.214340568E-1,-2.212948930E0,-3.280672728E0,3.963456769E0
8.883816708E0,1.088377333E-1,-2.877940487E0,-2.988793756E0,4.150575287E0
8.893876708E0,6.715708441E-1,-3.028065995E0,-2.934156496E0,4.269597804E0
8.903936708E0,1.746415966E0,-2.604918786E0,-4.048650709E0,5.121244299E0
8.913996708E0,3.046491156E0,-2.764168289E0,-5.521093047E0,6.885071033E0
8.924056708E0,3.556746384E0,-3.075177596E0,-7.281905442E0,8.667947217E0
8.934116708E0,2.939587097E0,-2.857029090E0,-8.471725534E0,9.411371900E0
8.944176708E0,1.932427590E0,-2.501509607E0,-7.702667572E0,8.326038339E0
8.954236708E0,1.492361462E0,-2.361060072E0,-5.852513815E0,6.484879748E0
8.964296708E0,1.308092893E0,-2.196486095E0,-4.386244383E0,5.076888611E0
8.974356708E0,1.241631685E0,-1.514908326E0,-3.178728277E0,3.733752795E0
8.984416708E0,1.351902571E0,-1.346166453E0,-2.206101256E0,2.916622607E0
8.994476708E0,1.286288626E0,-1.450727533E0,-9.829561275E-1,2.173787375E0
9.004536708E0,9.802570528E-1,-1.832630237E0,1.447045541E-1,2.083357118E0
9.014596708E0,5.609590656E-1,-2.201901201E0,1.412441134E0,2.675450229E0
9.024656708E0,1.066269010E-1,-1.994888132E0,2.870672983E0,3.497386357E0
9.034717708E0,-5.466374803E-1,-1.687728047E0,4.285616140E0,4.638291086E0
9.044777708E0,-8.453401530E-1,-2.114901064E0,5.667033117E0,6.107591247E0
9.054837708E0,-6.762731749E-1,-2.616619649E0,6.242045381E0,6.801997819E0
9.064897708E0,-8.177190757E-1,-2.927504995E0,6.127183846E0,6.839687995E0
9.074957708E0,-5.320714813E-1,-3.185578875E0,5.863886649E0,6.694488738E0
9.085017708E0,3.005147249E-1,-3.361525687E0,5.504735461E0,6.456955671E0
9.095077708E0,1.021503897E0,-3.632236569E0,4.834707405E0,6.132781456E0
9.105137708E0,1.503029707E0,-3.753227155E0,4.047711062E0,5.720994426E0
9.115197708E0,1.875794383E0,-3.700407502E0,3.608109203E0,5.498188090E0
9.125257708E0,2.163558084E0,-3.433209627E0,3.250073664E0,5.199124037E0
9.135317708E0,2.186409003E0,-2.896585504E0,2.889843664E0,4.639158147E0
9.145377708E0,2.155707613E0,-2.305198113E0,2.566495562E0,4.067912625E0
9.155437708E0,1.946984818E0,-1.528526491E0,2.165771840E0,3.289028850E0
9.165497708E0,1.544820927E0,-3.488606733E-1,1.515952931E0,2.192324965E0
9.175557708E0,1.166141793E0,9.846389562E-1,7.628221992E-1,1.706252696E0
9.185617708E0,5.437483710E-1,1.905850825E0,3.467030507E-1,2.011997183E0
9.195677708E0,-4.391750121E-1,2.309143814E0,4.236132324E-2,2.350917762E0
9.205737708E0,-1.434883917E0,2.613856840E0,8.056936920E-2,2.982889682E0
9.215798708E0,-2.479010691E0,2.788023174E0,1.019540986E-1,3.732152444E0
9.225858708E0,-3.299021291E0,3.024807342E0,2.796208692E-1,4.484550006E0
9.235918708E0,-3.722972492E0,3.409662890E0,8.585954985E-1,5.120889711E0
9.245978708E0,-3.960765304E0,3.577603109E0,1.261828261E0,5.484443122E0
9.256038708E0,-3.933927169E0,3.300271425E0,1.425795882E0,5.329208980E0
9.266098708E0,-3.584360737E0,3.090607229E0,1.583704034E0,4.990752789E0
9.276158708E0,-3.290936930E0,2.800954877E0,1.924132730E0,4.730528603E0
9.286218708E0,-2.940804487E0,2.555884620E0,2.007639448E0,4.383091760E0
9.296278708E0,-2.570022603E0,2.197182498E0,2.060019683E0,3.959331787E0
9.306338708E0,-2.201474354E0,1.818455417E0,2.103234115E0,3.546387341E0
9.316398708E0,-1.779186686E0,1.561665001E0,1.845025457E0,3.001403301E0
9.326458708E0,-1.409335093E0,1.436857937E0,1.272238351E0,2.381045266E0
9.336518708E0,-1.069037667E0,1.284085395E0,7.006598648E-1,1.811806027E0
9.346578708E0,-4.776368272E-1,1.223001872E0,-1.444431835E-1,1.320883928E0
9.356638708E0,2.661056149E-1,1.339967235E0,-1.005870781E0,1.696496512E0
9.366698708E0,8.964483261E-1,1.462595041E0,-1.820616255E0,2.501489038E0
9.376758708E0,1.269076177E0,1.484998648E0,-2.536731188E0,3.201684002E0
9.386818708E0,1.366182057E0,1.605595132E0,-2.976200023E0,3.647212047E0
9.396878708E0,1.261390597E0,1.739175358E0,-3.197042341E0,3.851871869E0
9.406938708E0,9.847693491E-1,1.890605380E0,-3.250713641E0,3.887325372E0
9.416998708E0,5.998219997E-1,2.009458809E0,-3.231975946E0,3.852710689E0
9.427058708E0,3.486279541E-1,2.133183553E0,-3.152011472E0,3.821935353E0
9.437118708E0,1.970804036E-1,2.110396369E0,-2.810592550E0,3.520233515E0
9.447178708E0,1.703709072E-1,1.799042076E0,-2.237710719E0,2.876269789E0
9.457239708E0,3.298408502E-1,1.300709614E0,-1.518065822E0,2.026120511E0
9.467299708E0,7.464169586E-1,8.305086905E-1,-8.675426155E-1,1.414041425E0
9.477359708E0,1.326409881E0,3.199152017E-1,-4.408590102E-1,1.433898732E0
9.487419708E0,1.889790278E0,-2.457005864E-1,-3.164042410E-1,1.931783559E0
9.497479708E0,2.403623124E0,-7.751887679E-1,-3.049346352E-1,2.543876350E0
9.507539708E0,2.787523237E0,-1.255384337E0,-6.438836932E-1,3.124237802E0
9.517599708E0,3.077891289E0,-1.637440823E0,-1.230102146E0,3.696995878E0
9.527659708E0,3.125389976E0,-1.840542689E0,-2.023670759E0,4.153420666E0
9.537719708E0,3.004340333E0,-1.760114822E0,-2.765996421E0,4.446886689E0
9.547779708E0,2.913776903E0,-1.589485468E0,-3.367177313E0,4.728048535E0
9.557839708E0,2.859144028E0,-1.230134890E0,-3.846301672E0,4.947926128E0
9.567899708E0,2.898309263E0,-8.104843158E-1,-4.068657250E0,5.060736431E0
9.577959708E0,3.038319672E0,-1.105564054E0,-3.914404193E0,5.077028510E0
9.588019708E0,2.919740478E0,-1.529979524E0,-3.254076375E0,4.631925610E0
9.598079708E0,2.784030111E0,-1.367514052E0,-2.216601978E0,3.812380185E0
9.608139708E0,2.680074218E0,-1.338434680E0,-1.060168025E0,3.177760445E0
9.618199708E0,2.535230500E0,-1.475770572E0,-1.194235325E-1,2.935907773E0
9.628259708E0,2.512655570E0,-1.434249494E0,9.228944054E-1,3.036814731E0
9.638319708E0,2.578075096E0,-1.379710760E0,1.924618341E0,3.500604053E0
9.648379708E0,2.377955894E0,-1.497183661E0,2.860818378E0,4.010051738E0
9.658439708E0,1.906758313E0,-1.620161131E0,3.678923078E0,4.449171200E0
9.668499708E0,1.329500719E0,-1.930840071E0,4.228380085E0,4.834760975E0
9.678559708E0,8.481813151E-1,-2.372901853E0,4.429739774E0,5.096338805E0
9.688619708E0,5.549311709E-1,-2.803289670E0,4.313421113E0,5.174164983E0
9.698680167E0,2.788551763E-1,-3.351739202E0,4.035147150E0,5.253030402E0
9.708740167E0,-1.364307439E-1,-4.037693027E0,3.572482118E0,5.392977546E0
9.718800167E0,-4.509401947E-1,-4.476295597E0,3.250572431E0,5.550386514E0
9.728860167E0,-5.008800942E-1,-4.561269674E0,2.801344301E0,5.376206078E0
9.738920167E0,-2.694180626E-1,-4.116204177E0,2.090674588E0,4.624569509E0
9.748980167E0,-9.361012191E-2,-3.453992971E0,1.281504141E0,3.685252116E0
9.759040167E0,-6.402145654E-2,-2.771652140E0,4.991852787E-1,2.816973602E0
9.769100167E0,-5.020243943E-2,-1.985903301E0,-4.010605216E-2,1.986942551E0
9.779160167E0,-1.540837803E-1,-7.881339186E-1,-3.586164603E-1,8.794899946E-1
9.789220167E0,-3.858872893E-1,3.511902040E-1,-5.672600251E-1,7.707317923E-1
9.799280167E0,-4.063475740E-1,1.190122978E0,-7.082893118E-1,1.443324220E0
9.809340167E0,-3.046402279E-1,1.828764058E0,-7.339547879E-1,1.993959197E0
9.819400167E0,-5.565447101E-1,2.252967859E0,-6.543429002E-1,2.411176231E0
9.829460167E0,-7.221004352E-1,2.793554056E0,-3.651428300E-1,2.908384876E0
9.839520167E0,-8.516659632E-1,3.132707766E0,8.501179129E-2,3.247525191E0
9.849580167E0,-9.608650544E-1,3.452949243E0,4.185746866E-1,3.608507294E0
9.859640167E0,-1.099057857E0,3.581961624E0,7.175182647E-1,3.814866932E0
9.869700167E0,-1.301239664E0,3.745219978E0,1.066138033E0,4.105672619E0
9.879760167E0,-1.266386165E0,3.886364747E0,1.185833461E0,4.256027005E0
9.889821167E0,-1.431798049E0,3.957304922E0,1.226406121E0,4.383421024E0
9.899881167E0,-1.760712408E0,4.021506765E0,1.420358264E0,4.614113397E0
9.909941167E0,-2.102058532E0,4.017007332E0,1.523634418E0,4.782934227E0
9.920001167E0,-2.372191709E0,3.763354533E0,1.624472283E0,4.735930853E0
9.930061167E0,-2.665223752E0,3.534885691E0,1.829404328E0,4.790151844E0
9.940121167E0,-2.819910380E0,3.401646357E0,1.991310513E0,4.846484298E0
9.950181167E0,-2.785439875E0,3.000196411E0,2.205382048E0,4.650114383E0
9.960241167E0,-2.650662138E0,2.501384477E0,2.627732575E0,4.493096099E0
9.970301167E0,-2.271869568E0,2.003573002E0,2.714176934E0,4.067241391E0
9.980361167E0,-1.620238314E0,1.610427271E0,2.594097928E0,3.456586792E0
9.990421167E0,-1.028495997E0,1.526972886E0,2.312978418E0,2.956233985E0
1.000048117E1,-6.204416209E-1,1.652096869E0,1.825453364E0,2.539025769E0
1.001054117E1,-1.699732965E-1,2.176528378E0,1.657062324E0,2.740806861E0
1.002060117E1,3.590248883E-2,1.746634651E0,1.173784688E0,2.104707126E0
1.003066117E1,4.038730323E-2,9.818638676E-1,4.504940522E-1,1.081033154E0
1.004072117E1,6.499647975E-2,1.119217302E0,2.376182726E-1,1.146008008E0
1.005078117E1,1.257379407E-1,1.174420865E0,-1.332048351E-1,1.188620178E0
1.006084117E1,3.163583404E-1,7.568045372E-1,-6.027400526E-1,1.017905338E0
1.007090117E1,5.806875712E-1,2.473033082E-1,-1.824946411E0,1.931006573E0
1.008096117E1,9.206259781E-1,-5.816254646E-1,-2.976930632E0,3.169851158E0
1.009102117E1,1.249096241E0,-1.503422640E0,-3.261138642E0,3.802045015E0
1.010108117E1,1.274854395E0,-1.977456413E0,-3.443581711E0,4.170592595E0
1.011114117E1,1.424005757E0,-2.454056529E0,-3.756703910E0,4.707760626E0
1.012120117E1,1.753893970E0,-3.032609866E0,-3.672466290E0,5.075418732E0
1.013126117E1,1.677438701E0,-3.306265991E0,-3.252190940E0,4.931728025E0
1.014132117E1,1.255332881E0,-3.022742690E0,-3.335894125E0,4.673438095E0
1.015138117E1,9.336237538E-1,-2.993349906E0,-3.887810471E0,4.994683897E0
1.016144117E1,7.580289441E-1,-3.134556071E0,-5.089189632E0,6.024939896E0
1.017150117E1,4.637760025E-1,-2.879953099E0,-6.094373365E0,6.756523125E0
1.018156117E1,2.378050911E-1,-2.362874463E0,-6.781155156E0,7.184969884E0
1.019162117E1,2.732590985E-1,-2.246517795E0,-6.817406139E0,7.183212318E0
1.020168117E1,5.359674811E-1,-2.441446424E0,-6.081722329E0,6.575353091E0
1.021174117E1,7.599158406E-1,-2.436244156E0,-4.712653795E0,5.359278259E0
1.022180117E1,1.157672101E0,-2.184746055E0,-3.507577440E0,4.291435600E0
1.023186117E1,1.300399711E0,-2.316969143E0,-2.079902555E0,3.374222881E0
1.024192117E1,7.422157341E-1,-2.362577425E0,-3.603150764E-1,2.502495402E0
1.025198117E1,2.381500769E-1,-2.254392241E0,1.317714194E0,2.622092777E0
1.026204117E1,1.881487817E-1,-2.219470330E0,2.575141840E0,3.404820701E0
1.027210117E1,-1.057702839E-1,-1.836374209E0,3.707908018E0,4.139086790E0
1.028216017E1,-8.362413007E-1,-1.563229716E0,4.816004501E0,5.131947584E0
1.029222117E1,-1.081709753E0,-1.713175714E0,5.663758092E0,6.015249184E0
1.030228017E1,-1.172464972E0,-1.659800575E0,5.732813709E0,6.082332207E0
1.031234017E1,-1.160564718E0,-1.725030944E0,5.292071643E0,5.685830150E0
1.032240017E1,-6.869192004E-1,-1.875207322E0,4.614634580E0,5.028231577E0
1.033246017E1,7.786561668E-2,-2.089935207E0,4.046899176E0,4.555357853E0
1.034252017E1,7.719558424E-1,-2.179165472E0,3.556838185E0,4.242142837E0
1.035258017E1,1.302667846E0,-2.099082592E0,3.161518752E0,4.012267696E0
1.036264017E1,1.613520448E0,-2.072508751E0,2.848946776E0,3.874950128E0
1.037270017E1,1.793588378E0,-2.065848187E0,2.721209672E0,3.858713527E0
1.038276017E1,1.860650679E0,-1.734999862E0,2.690843035E0,3.703090832E0
1.039282017E1,1.894644637E0,-1.170897918E0,2.441258436E0,3.304606328E0
1.040288017E1,1.895945642E0,-6.673643571E-1,1.996974126E0,2.833353265E0
1.041294017E1,1.889666317E0,1.121724004E-1,1.504314633E0,2.417929683E0
1.042300017E1,1.757956030E0,1.096754639E0,1.103902860E0,2.347739693E0
1.043306017E1,1.090705109E0,1.570920559E0,1.077037535E0,2.194866485E0
1.044312017E1,1.492121726E-1,1.981981573E0,1.295509392E0,2.372521826E0
1.045318017E1,-8.431199652E-1,2.383704584E0,1.483453814E0,2.931473015E0
1.046324017E1,-1.924394100E0,2.460494898E0,1.693278516E0,3.553100045E0
1.047330017E1,-2.782676480E0,2.520603690E0,2.151296181E0,4.327216960E0
1.048336017E1,-3.365960800E0,2.583187609E0,2.481244035E0,4.915193006E0
1.049342017E1,-3.770083508E0,2.733886144E0,2.586550050E0,5.327091539E0
1.050348017E1,-3.853370079E0,2.795723957E0,2.489368156E0,5.372288826E0
1.051354017E1,-3.689977239E0,2.648764132E0,2.278340682E0,5.081606017E0
1.052360017E1,-3.366147326E0,2.386247538E0,2.057014799E0,4.610470151E0
1.053366017E1,-2.880425554E0,2.220944998E0,1.680873648E0,4.006842183E0
1.054372017E1,-2.348167546E0,2.038865041E0,1.377257560E0,3.401132145E0
1.055378017E1,-1.832332613E0,1.750061705E0,8.794811681E-1,2.682097295E0
1.056384017E1,-1.350376448E0,1.334015354E0,4.729178318E-1,1.956211847E0
1.057390017E1,-8.721999228E-1,1.064717744E0,-1.710752043E-1,1.386947477E0
1.058396017E1,-4.090747154E-1,1.132685194E0,-7.623026741E-1,1.425280056E0
1.059402017E1,8.622771978E-2,1.147231312E0,-1.332960224E0,1.760783309E0
1.060408017E1,5.054105169E-1,1.322670001E0,-1.897360961E0,2.367461581E0
1.061414017E1,9.162896830E-1,1.616018963E0,-2.497068355E0,3.112306932E0
1.062420017E1,1.173620966E0,1.754645337E0,-2.989288138E0,3.659509530E0
1.063426017E1,1.214775424E0,1.890947442E0,-3.285261623E0,3.980490609E0
1.064432017E1,1.097946301E0,2.050931355E0,-3.366980262E0,4.092476217E0
1.065438017E1,7.914861274E-1,2.171707934E0,-3.306503388E0,4.034319062E0
1.066444017E1,4.486492556E-1,2.259370560E0,-3.324920655E0,4.044890461E0
1.067450017E1,1.903642917E-1,2.439418609E0,-3.144958853E0,3.984691694E0
1.068456017E1,1.397414374E-1,2.481073589E0,-2.805694045E0,3.747955829E0
1.069461992E1,1.849544477E-1,2.127814640E0,-2.281284170E0,3.125069720E0
1.070467992E1,3.807367694E-1,1.612695991E0,-1.511349564E0,2.242749730E0
1.071473992E1,7.967264020E-1,1.124229535E0,-6.844595692E-1,1.538554487E0
1.072479992E1,1.220123872E0,5.619250256E-1,-6.933613703E-2,1.345090888E0
1.073485992E1,1.618798730E0,-3.707017779E-2,4.930091572E-1,1.692613823E0
1.074491992E1,1.939866418E0,-7.995178628E-1,8.447212252E-1,2.261827686E0
1.075497992E1,2.251795492E0,-1.858690692E0,7.006800377E-1,3.002709867E0
1.076503992E1,2.562332345E0,-2.779847013E0,3.173032504E-1,3.793913258E0
1.077509992E1,2.668784999E0,-2.849941680E0,-2.287679270E-1,3.911127166E0
1.078515992E1,2.716379580E0,-2.307400759E0,-1.105753796E0,3.731689663E0
1.079521992E1,2.650692544E0,-1.820361024E0,-2.445714891E0,4.039976058E0
1.080527992E1,2.851218127E0,-1.241904166E0,-3.615280521E0,4.768859823E0
1.081533992E1,3.304866167E0,-1.319224237E0,-4.387919025E0,5.649453632E0
1.082539892E1,3.458773654E0,-1.839923469E0,-4.686671107E0,6.108462951E0
1.083545892E1,3.355607720E0,-2.147157229E0,-4.031873878E0,5.668015024E0
1.084551892E1,3.178827095E0,-1.882929740E0,-2.727273527E0,4.592209381E0
1.085557892E1,3.032585893E0,-1.754344790E0,-1.772405670E0,3.926286375E0
1.086563892E1,2.990226908E0,-1.611242958E0,-1.014999162E0,3.545107069E0
1.087569892E1,2.789772077E0,-1.192060161E0,-3.214565277E-2,3.033952704E0
1.088575892E1,2.150759114E0,-7.502720279E-1,1.070811420E0,2.517004167E0
1.089581892E1,1.394197236E0,-4.207977980E-1,1.958498278E0,2.440608987E0
1.090587892E1,5.951834035E-1,-3.614538217E-1,2.675635597E0,2.764763642E0
1.091593892E1,-1.430977392E-1,-5.617987257E-1,3.271369515E0,3.322341535E0
1.092599892E1,-6.144903249E-1,-8.900643361E-1,3.551116977E0,3.712175193E0
1.093605892E1,-7.964790648E-1,-1.528698984E0,3.653076338E0,4.039339824E0
1.094611892E1,-8.561966783E-1,-2.440186349E0,3.663979056E0,4.484676654E0
1.095617892E1,-7.521074688E-1,-3.681162561E0,3.710626681E0,5.280660357E0
1.096623892E1,-4.087314838E-1,-4.844192466E0,3.618472808E0,6.060248141E0
1.097629892E1,1.708123720E-1,-5.527075918E0,3.202860906E0,6.390310090E0
1.098635892E1,8.107088488E-1,-5.612761016E0,2.207855421E0,6.085635597E0
1.099641892E1,1.146944799E0,-5.071100101E0,1.218388419E0,5.340038290E0
1.100647892E1,1.081013934E0,-4.168600491E0,5.592879313E-1,4.342651744E0
1.101653892E1,8.383995080E-1,-3.103291009E0,1.468148142E-1,3.217900466E0
1.102659892E1,7.096882582E-1,-1.800795656E0,-4.153113556E-1,1.979647933E0
1.103665892E1,4.129981971E-1,-4.866818851E-1,-5.240362376E-1,8.258575824E-1
1.104671892E1,2.287617874E-1,6.653119844E-1,-5.175209776E-1,8.733841962E-1
1.105677892E1,1.236978471E-1,1.573068826E0,-4.473005953E-1,1.640098933E0
1.106683892E1,-2.517372519E-1,2.067037511E0,-1.975967127E-1,2.091664451E0
1.107689892E1,-5.953728533E-1,2.243204178E0,2.810259551E-1,2.337821509E0
1.108695892E1,-8.300502688E-1,2.589790285E0,7.692158371E-1,2.826250196E0
1.109701892E1,-1.078410169E0,3.063449836E0,1.168114643E0,3.451403368E0
1.110707892E1,-1.148870287E0,3.471546897E0,1.482061299E0,3.945636386E0
1.111713892E1,-1.231742290E0,3.683971564E0,1.723822909E0,4.249753048E0
1.112719892E1,-1.395083089E0,3.835119749E0,1.991785015E0,4.541102054E0
1.113725892E1,-1.543570500E0,3.848371879E0,2.196168298E0,4.692092412E0
1.114731892E1,-1.733191318E0,3.868366433E0,2.306367556E0,4.825716766E0
1.115737892E1,-1.800907338E0,3.794458212E0,2.488773202E0,4.882127857E0
1.116743892E1,-1.858611462E0,3.625201784E0,2.595460037E0,4.830417927E0
1.117749892E1,-2.114327452E0,3.643889485E0,2.381348741E0,4.839331873E0
1.118755892E1,-2.294219088E0,3.424192051E0,2.248609637E0,4.695186655E0
1.119761892E1,-2.401656121E0,3.218068344E0,2.179164888E0,4.568662342E0
1.120767892E1,-2.340201007E0,2.995538519E0,2.218453499E0,4.401287051E0
1.121773892E1,-2.100413418E0,2.776473754E0,2.286393467E0,4.165109617E0
1.122779892E1,-1.623796930E0,2.604886041E0,2.210349551E0,3.782564328E0
1.123785892E1,-1.009656853E0,2.473509631E0,2.228334416E0,3.478955465E0
1.124791892E1,-5.623337460E-1,2.253712209E0,2.222179930E0,3.214579538E0
1.125797892E1,-2.064008653E-1,1.897645428E0,2.083014443E0,2.825351068E0
1.126803892E1,1.051019472E-1,1.657678621E0,1.975302883E0,2.580846045E0
1.127809892E1,3.407032228E-1,1.467542955E0,1.816814395E0,2.360206677E0
1.128815892E1,3.503534675E-1,1.248739561E0,1.589570545E0,2.051543946E0
1.129821892E1,2.031895745E-1,9.683217162E-1,1.336649525E0,1.662998768E0
1.130827892E1,-1.154649675E-1,7.167581266E-1,1.046475308E0,1.273650243E0
1.131833892E1,-4.151119655E-1,4.176601821E-1,6.417906824E-1,8.710070331E-1
1.132839892E1,-7.270936650E-1,5.783305585E-2,-7.539136738E-2,7.332760178E-1
1.133845892E1,-5.988279730E-1,-7.487833267E-1,-8.296035415E-1,1.267877537E0
1.134851892E1,-2.845757997E-1,-1.682121736E0,-1.551183867E0,2.305794507E0
1.135857892E1,-5.080236375E-2,-2.362569239E0,-2.536933794E0,3.467037260E0
1.136863892E1,1.426942813E-1,-2.792517929E0,-3.391411976E0,4.395474176E0
1.137869892E1,7.439213669E-1,-3.194328648E0,-3.644774461E0,4.903216841E0
1.138875892E1,1.344228685E0,-3.427603902E0,-3.948296994E0,5.398561699E0
1.139881892E1,1.771559578E0,-3.542882343E0,-4.415747679E0,5.932054130E0
1.140887892E1,2.126975564E0,-3.556240307E0,-5.396373106E0,6.803801355E0
1.141893892E1,2.110996878E0,-3.346720537E0,-5.856525005E0,7.067936849E0
1.142899892E1,1.886838019E0,-2.674709398E0,-7.647172233E0,8.318261311E0
1.143905892E1,1.325849717E0,-2.019076894E0,-9.523805691E0,9.825345990E0
1.144911892E1,9.425243855E-1,-1.738707581E0,-9.585197947E0,9.787107640E0
1.145917892E1,1.339706449E0,-1.714411231E0,-8.311987789E0,8.592040516E0
1.146923892E1,1.591098715E0,-1.717458799E0,-6.167021511E0,6.596469826E0
1.147929892E1,1.726794464E0,-1.747055066E0,-4.421994552E0,5.058463832E0
1.148935892E1,1.784058001E0,-2.013723183E0,-2.830008229E0,3.904726698E0
1.149941892E1,1.616892537E0,-2.219433492E0,-1.310586438E0,3.042673712E0
1.150947892E1,1.561083203E0,-2.340480212E0,-1.110181600E-2,2.813352385E0
1.151953892E1,1.253302728E0,-2.008598099E0,8.802182096E-1,2.525869780E0
1.152959892E1,1.677829295E-1,-1.284925640E0,1.936951873E0,2.330443642E0
1.153965892E1,-9.689836210E-1,-7.949593735E-1,3.745627821E0,3.949761694E0
1.154971892E1,-1.505077987E0,-1.048348464E0,5.284607087E0,5.593868636E0
1.155977892E1,-1.489199288E0,-1.368087664E0,5.931214414E0,6.266472915E0
1.156983892E1,-1.545738940E0,-1.383683358E0,5.656047369E0,6.024513287E0
1.157989892E1,-1.157859212E0,-1.582077046E0,5.123006419E0,5.485325925E0
1.158995892E1,-1.631145126E-1,-1.787721866E0,4.608741171E0,4.946013647E0
1.160001892E1,6.182155859E-1,-1.877493584E0,4.155747727E0,4.601892201E0
1.161007892E1,9.518255514E-1,-2.124102827E0,3.896716366E0,4.538962782E0
1.162013892E1,1.071170146E0,-2.471580634E0,3.929056438E0,4.763780097E0
1.163019992E1,1.209990063E0,-2.691925355E0,4.187852741E0,5.123343503E0
1.164025892E1,1.309519029E0,-2.444228529E0,4.070802301E0,4.925497392E0
1.165031992E1,1.446832117E0,-1.907661708E0,3.624313884E0,4.343748093E0
1.166037992E1,1.576647322E0,-1.544611596E0,3.270620487E0,3.945706544E0
1.167043992E1,1.576718658E0,-8.444718415E-1,2.758135424E0,3.287321924E0
1.168049992E1,1.533888972E0,4.743963003E-2,2.031818269E0,2.546242600E0
1.169055992E1,1.221483350E0,8.865788108E-1,1.442140896E0,2.087537766E0
1.170061971E1,6.014486951E-1,1.700890714E0,9.619362643E-1,2.044527117E0
1.171067971E1,-1.496507138E-1,2.351146703E0,8.409383690E-1,2.501492254E0
1.172073971E1,-1.103351467E0,2.762305951E0,8.586487082E-1,3.095964507E0
1.173079971E1,-2.037364646E0,2.932128974E0,1.276736614E0,3.791871754E0
1.174085971E1,-2.816407898E0,2.937364570E0,1.593622081E0,4.370342710E0
1.175091971E1,-3.198976015E0,3.022049795E0,1.614593120E0,4.687551968E0
1.176097971E1,-3.302292223E0,3.041575402E0,1.626218554E0,4.775028967E0
1.177103971E1,-3.143726259E0,2.916894053E0,1.597281561E0,4.576307911E0
1.178109971E1,-3.002068105E0,2.733351708E0,1.535293181E0,4.340593233E0
1.179115971E1,-2.822022979E0,2.539058087E0,1.262042269E0,4.000422522E0
1.180121971E1,-2.586631619E0,2.344957425E0,1.065229083E0,3.650233069E0
1.181127971E1,-2.360477105E0,2.007235113E0,9.869252175E-1,3.251901958E0
1.182133971E1,-2.087589889E0,1.612206579E0,7.236093092E-1,2.735114628E0
1.183139971E1,-1.605161853E0,1.278787233E0,1.642754772E-1,2.058841372E0
1.184145971E1,-9.088239580E-1,9.674972588E-1,-3.821421477E-1,1.381319859E0
1.185151971E1,-2.688818729E-1,7.303803849E-1,-8.013471642E-1,1.117099031E0
1.186157971E1,3.790527713E-1,6.173069286E-1,-1.281475344E0,1.472048880E0
1.187163971E1,8.898468196E-1,6.445660633E-1,-1.917823146E0,2.210280161E0
1.188169971E1,1.086398050E0,6.235043925E-1,-2.189787817E0,2.522734456E0
1.189175971E1,9.556858832E-1,7.724639654E-1,-2.220407639E0,2.537764009E0
1.190181971E1,6.642875522E-1,9.239612299E-1,-2.325049995E0,2.588598034E0
1.191187971E1,1.800375241E-1,1.166868017E0,-2.720972568E0,2.966089377E0
1.192193971E1,-2.901844490E-1,1.542784342E0,-3.231780649E0,3.592881393E0
1.193199971E1,-6.004172462E-1,2.030731564E0,-3.557128499E0,4.139750562E0
1.194205971E1,-6.281026429E-1,2.399309633E0,-3.651505776E0,4.414147038E0
1.195212071E1,-4.952106339E-1,2.525647498E0,-3.469976335E0,4.320285248E0
1.196218071E1,-1.564866936E-1,2.366144811E0,-3.073715792E0,3.882120313E0
1.197224071E1,3.833265013E-1,1.982804861E0,-2.507433422E0,3.219577098E0
1.198230071E1,1.077195702E0,1.592686234E0,-2.010439095E0,2.781881625E0
1.199236071E1,1.651284106E0,7.762336653E-1,-1.436101746E0,2.321996151E0
1.200242071E1,1.996377418E0,-7.794221520E-2,-7.997801104E-1,2.152032994E0
1.201248071E1,2.421394567E0,-5.819172406E-1,-2.729126510E-1,2.505246622E0
1.202254071E1,2.877845762E0,-9.387277883E-1,-6.030350447E-2,3.027679409E0
1.203260071E1,3.251242522E0,-1.428408710E0,5.997956872E-2,3.551693530E0
1.204266071E1,3.509344468E0,-1.881946823E0,4.113253087E-2,3.982325241E0
1.205272071E1,3.575854792E0,-2.204982099E0,-2.986795762E-1,4.211637810E0
1.206278071E1,3.616859561E0,-2.333880460E0,-8.589176801E-1,4.389351964E0
1.207284071E1,3.766743579E0,-1.792813622E0,-1.623011649E0,4.476237782E0
1.208290071E1,3.915619537E0,-1.337329556E0,-2.564994874E0,4.868236375E0
1.209296071E1,3.834873582E0,-1.490437728E0,-3.412396463E0,5.345288545E0
1.210302071E1,3.544165807E0,-1.523271598E0,-3.668783421E0,5.323667854E0
1.211308071E1,3.183420083E0,-1.066314034E0,-3.398170772E0,4.776897910E0
1.212314071E1,2.728786202E0,-7.195758998E-1,-2.866876386E0,4.022815410E0
1.213320071E1,2.133641975E0,-5.495698589E-1,-2.088061175E0,3.035532009E0
1.214326071E1,1.581257266E0,-3.029360569E-1,-1.029536802E0,1.911044432E0
1.215332071E1,1.073861620E0,-3.609035987E-1,4.082026032E-1,1.204184185E0
1.216338071E1,4.900358480E-1,-4.860919011E-1,1.889042127E0,2.011193831E0
1.217344071E1,-2.907001734E-2,-5.781639129E-1,3.052467888E0,3.106876049E0
1.218350071E1,-3.982047415E-1,-1.008627743E0,3.909924641E0,4.057512494E0
1.219356071E1,-6.566341317E-1,-1.785267790E0,4.642061822E0,5.016680917E0
1.220362071E1,-8.031384587E-1,-2.753732763E0,4.836882569E0,5.623478327E0
1.221368071E1,-8.449150604E-1,-3.783692318E0,4.557458166E0,5.983363097E0
1.222374071E1,-7.106705904E-1,-4.599945497E0,4.017452890E0,6.148534703E0
1.223380071E1,-3.575291705E-1,-4.923018195E0,3.484444100E0,6.041960439E0
1.224386071E1,2.909621286E-1,-4.640953190E0,2.807587958E0,5.431910862E0
1.225392071E1,8.971336198E-1,-4.280850660E0,2.009238077E0,4.813270068E0
1.226398071E1,1.254314881E0,-3.914412087E0,1.087237126E0,4.251824593E0
1.227404071E1,1.174864084E0,-3.154209148E0,4.366402441E-1,3.394111911E0
1.228410071E1,8.118250823E-1,-2.005404350E0,1.831014651E-1,2.171228389E0
1.229416071E1,3.830376488E-1,-1.017299164E0,7.483851314E-3,1.087047118E0
1.230422171E1,-1.287995428E-1,-3.237275863E-1,-2.019482106E-1,4.027057885E-1
1.231428171E1,-4.365689081E-1,3.854835391E-1,-3.192459878E-1,6.641595977E-1
1.232434171E1,-5.243502331E-1,1.245721813E0,-1.791604418E-1,1.363401799E0
1.233440171E1,-4.986014342E-1,1.859275414E0,-2.415660203E-2,1.925121294E0
1.234446171E1,-8.579660457E-1,2.285045099E0,1.458149403E-1,2.445158244E0
1.235452171E1,-1.056008901E0,2.641630529E0,2.764967018E-1,2.858289187E0
1.236458171E1,-9.940903956E-1,3.178127183E0,4.447620267E-1,3.359541839E0
1.237464171E1,-9.861463684E-1,3.638101911E0,5.107127720E-1,3.803826719E0
1.238470171E1,-9.755903900E-1,3.838559666E0,6.109466198E-1,4.007439668E0
1.239476171E1,-8.897380614E-1,3.979482826E0,7.044283953E-1,4.138132036E0
1.240482171E1,-1.347772683E0,4.247828509E0,8.307691839E-1,4.533289720E0
1.241488171E1,-1.747760240E0,4.372684105E0,1.251593002E0,4.872526776E0
1.242494171E1,-2.081723378E0,4.331691615E0,1.606994956E0,5.067500099E0
1.243500171E1,-2.459275753E0,4.160108580E0,1.817871864E0,5.163254666E0
1.244506171E1,-2.732638932E0,4.037759686E0,2.026974143E0,5.280098767E0
1.245512171E1,-2.915217656E0,3.809395509E0,2.283328941E0,5.312586863E0
1.246518171E1,-2.901957926E0,3.519146156E0,2.550464543E0,5.225956262E0
1.247524171E1,-2.572073221E0,3.214141939E0,2.726272484E0,4.937492351E0
1.248530171E1,-2.159209510E0,2.817827602E0,2.562793105E0,4.378384017E0
1.249536171E1,-1.651345502E0,2.589678018E0,2.025619636E0,3.679199521E0
1.250542171E1,-1.113426805E0,2.563148031E0,1.608062949E0,3.224176411E0
1.251548171E1,-7.323848104E-1,2.536744929E0,1.307555241E0,2.946381349E0
1.252554171E1,-3.689838660E-1,2.272419207E0,1.020411929E0,2.518189558E0
1.253560171E1,-5.085557342E-2,2.010123637E0,7.623938906E-1,2.150448272E0
1.254566171E1,3.076857501E-1,1.952578264E0,4.148181430E-1,2.019729311E0
1.255572171E1,5.595598269E-1,1.780237430E0,1.110164058E-1,1.869405561E0
1.256578171E1,7.679879218E-1,1.293264354E0,-9.872029603E-2,1.507343303E0
1.257584171E1,8.703001624E-1,8.060053486E-1,-2.590184972E-1,1.214148910E0
1.258590171E1,1.047957870E0,3.326609623E-1,-6.194797540E-1,1.261996109E0
1.259596171E1,1.531019744E0,-2.753909934E-1,-1.220279116E0,1.977104644E0
1.260602171E1,2.100771852E0,-1.278027679E0,-1.612674064E0,2.940631694E0
1.261608171E1,2.432718285E0,-2.160368428E0,-1.744483753E0,3.691684380E0
1.262614171E1,2.737333077E0,-2.915060951E0,-1.525578032E0,4.279948721E0
1.263620171E1,2.824089385E0,-3.727253823E0,-1.347676789E0,4.866634838E0
1.264626171E1,2.641927568E0,-4.200062020E0,-1.150793729E0,5.093586992E0
1.265632171E1,2.405584280E0,-4.622333316E0,-1.102889245E0,5.326271276E0
1.266638171E1,2.193920921E0,-4.864223272E0,-1.258269645E0,5.482444669E0
1.267644171E1,1.569151776E0,-4.898968597E0,-1.695556007E0,5.416367859E0
1.268650171E1,1.036739987E0,-4.469830331E0,-3.426600812E0,5.726762271E0
1.269656154E1,8.994654894E-1,-4.242826216E0,-5.034581316E0,6.645120126E0
1.270662154E1,9.108359849E-1,-3.928725486E0,-7.055410035E0,8.126703938E0
1.271668154E1,1.204374397E0,-3.545168020E0,-7.954344013E0,8.791491492E0
1.272674154E1,1.673017622E0,-3.429184404E0,-7.121674776E0,8.079390154E0
1.273680154E1,1.838375711E0,-3.495716947E0,-5.491830071E0,6.764603444E0
1.274686154E1,1.759577463E0,-3.467590086E0,-3.616581234E0,5.310362857E0
1.275692154E1,1.660304021E0,-2.825379866E0,-1.993572801E0,3.835845844E0
1.276698154E1,4.868964779E-1,-1.283259768E0,-8.211277100E-1,1.599398177E0
1.277704154E1,-1.345955368E0,-2.125930667E-1,1.429045472E0,1.974579101E0
1.278710154E1,-2.679694734E0,2.304387689E-3,4.009756200E0,4.822749627E0
1.279716154E1,-3.267420598E0,-4.700401247E-1,6.116786327E0,6.950687021E0
1.280722154E1,-3.297629653E0,-1.357810598E0,7.448145876E0,8.257898518E0
1.281728154E1,-2.745025674E0,-1.005183733E0,6.628224739E0,7.244233809E0
1.282734154E1,-1.227957972E0,-3.876774144E-1,4.382760904E0,4.568015729E0
1.283740154E1,5.068980485E-1,-8.034816903E-1,3.009070438E0,3.155476724E0
1.284746154E1,1.472193831E0,-1.173016949E0,2.515411363E0,3.141753931E0
1.285752154E1,1.870891492E0,-1.445734010E0,2.469192924E0,3.418668673E0
1.286758154E1,2.173557993E0,-1.761264970E0,2.709922207E0,3.894879589E0
1.287764154E1,2.316894298E0,-1.811769125E0,2.842319542E0,4.090145099E0
1.288770154E1,2.330157537E0,-1.585785350E0,2.580225117E0,3.821244690E0
1.289776154E1,2.262485372E0,-1.008050038E0,2.070724765E0,3.228452569E0
1.290782154E1,2.108747454E0,-4.006284124E-1,1.640055405E0,2.701314621E0
1.291788154E1,1.965475468E0,2.517103547E-1,1.162329408E0,2.297272637E0
1.292794154E1,1.855702180E0,1.183198121E0,6.494110662E-1,2.294629187E0
1.293800154E1,1.646979970E0,2.068801616E0,3.442492667E-1,2.666644091E0
1.294806154E1,1.003745903E0,2.636020126E0,3.522090814E-1,2.842562080E0
1.295812154E1,2.425793427E-1,3.013384806E0,4.853764942E-1,3.061849615E0
1.296818154E1,-5.393196899E-1,3.081448735E0,8.466051981E-1,3.240822796E0
1.297824154E1,-1.449608960E0,3.004029261E0,1.416967756E0,3.623997180E0
1.298830154E1,-2.190759332E0,2.964655280E0,2.216896970E0,4.301539208E0
1.299836154E1,-2.771010116E0,2.864192514E0,2.657641083E0,4.790109805E0
1.300842154E1,-3.047805610E0,2.713859430E0,2.804389239E0,4.951641248E0
1.301848154E1,-3.186816146E0,2.382829841E0,3.019569406E0,4.995145102E0
1.302854154E1,-3.135321472E0,2.036725545E0,3.035140834E0,4.815658995E0
1.303860154E1,-2.971121131E0,1.771150857E0,2.969141264E0,4.558545380E0
1.304866154E1,-2.635130764E0,1.668694775E0,2.550538511E0,4.029106984E0
1.305872154E1,-2.328955350E0,1.564333670E0,2.035053534E0,3.465922062E0
1.306878154E1,-2.155250945E0,1.475715024E0,1.397905979E0,2.962597272E0
1.307884154E1,-1.880761008E0,1.467259950E0,9.339759023E-1,2.561722997E0
1.308890154E1,-1.564893833E0,1.454551027E0,2.263632596E-1,2.148453333E0
1.309896154E1,-1.230469936E0,1.503634894E0,-4.567751312E-1,1.995900217E0
1.310902154E1,-8.595430398E-1,1.576610484E0,-1.183177363E0,2.150447286E0
1.311908154E1,-4.376243305E-1,1.711420380E0,-2.005695541E0,2.672693281E0
1.312914154E1,-4.781034350E-2,1.975833226E0,-2.583590774E0,3.252867051E0
1.313920154E1,2.483137071E-1,2.137053241E0,-3.029930380E0,3.716064364E0
1.314926154E1,4.515243316E-1,2.124244915E0,-3.286564675E0,3.939263642E0
1.315932154E1,5.515853941E-1,2.157392195E0,-3.422460691E0,4.083114585E0
1.316938154E1,5.023676258E-1,2.193065473E0,-3.491544374E0,4.153647977E0
1.317944154E1,4.831548446E-1,2.224493673E0,-3.471757396E0,4.151494926E0
1.318950154E1,4.236594254E-1,2.046756443E0,-3.408651906E0,3.998450583E0
1.319956154E1,3.908015817E-1,1.717112060E0,-3.232320055E0,3.680909214E0
1.320962154E1,6.129688793E-1,1.367518730E0,-2.770430364E0,3.149781378E0
1.321968154E1,1.090193478E0,8.635834658E-1,-2.023970429E0,2.455759458E0
1.322974154E1,1.619751241E0,2.357579809E-1,-1.501027036E0,2.220868765E0
1.323980154E1,2.080500140E0,-3.054614693E-1,-9.999709404E-1,2.328460741E0
1.324986154E1,2.663962800E0,-9.996142602E-1,-6.091740364E-1,2.909814337E0
1.325992154E1,3.120673612E0,-1.772003966E0,-4.564953420E-1,3.617594483E0
1.326998154E1,3.598027434E0,-2.471599345E0,-5.629488730E-1,4.401308461E0
1.328004154E1,3.959718652E0,-3.024196892E0,-7.535520235E-1,5.039144699E0
1.329010154E1,4.138599597E0,-3.138859037E0,-1.001373395E0,5.289914116E0
1.330016154E1,4.156727135E0,-2.831493714E0,-1.449603113E0,5.234222609E0
1.331022154E1,4.093280752E0,-2.255621910E0,-2.268907661E0,5.195259329E0
1.332028154E1,3.992520947E0,-1.828150685E0,-3.000258976E0,5.318262157E0
1.333034154E1,3.846669754E0,-1.812612879E0,-3.418378165E0,5.455982306E0
1.334040154E1,3.445181217E0,-1.598443403E0,-3.320840760E0,5.045025102E0
1.335046154E1,3.030859795E0,-1.244250069E0,-2.748005415E0,4.276190254E0
1.336052154E1,2.748127037E0,-9.135128403E-1,-1.955712957E0,3.494498690E0
1.337058154E1,2.388265997E0,-6.352087641E-1,-1.078786437E0,2.696494915E0
1.338064154E1,2.000373405E0,-2.840378559E-1,4.351907194E-2,2.020907018E0
1.339070154E1,1.464486031E0,-1.783944565E-1,1.131166964E0,1.859054227E0
1.340076154E1,9.084570453E-1,-2.787630826E-1,2.013169744E0,2.226175078E0
1.341082154E1,2.911314055E-1,-3.876937866E-1,2.867708445E0,2.908404320E0
1.342088154E1,-2.904706702E-1,-7.170534110E-1,3.635471249E0,3.716879068E0
1.343094154E1,-8.766666108E-1,-1.292739859E0,4.188192464E0,4.469975034E0
1.344100154E1,-1.386210232E0,-1.980819731E0,4.563719072E0,5.164567493E0
1.345106154E1,-1.408324694E0,-2.808679633E0,4.726631564E0,5.675659051E0
1.346112154E1,-1.094511647E0,-3.730790219E0,4.563007759E0,5.994813693E0
1.347118154E1,-5.890958673E-1,-4.593498942E0,4.205402282E0,6.255611467E0
1.348124154E1,-8.168443322E-2,-4.949255821E0,3.601428759E0,6.121445470E0
1.349130154E1,2.970373857E-1,-4.793553239E0,2.602562943E0,5.462574277E0
1.350136154E1,5.560503280E-1,-4.167281944E0,1.333543191E0,4.410642608E0
1.351142154E1,5.005201980E-1,-3.100034695E0,2.309536162E-1,3.148662438E0
1.352148154E1,1.257452497E-1,-1.934378221E0,-3.295844498E-1,1.966279960E0
1.353154154E1,-3.571017390E-1,-6.906023616E-1,-2.446369779E-1,8.150463329E-1
1.354160154E1,-7.654531538E-1,2.402615064E-1,-1.263410810E-1,8.121614316E-1
1.355166154E1,-9.658658856E-1,1.042096621E0,-3.831256494E-1,1.471613923E0
1.356172154E1,-7.823890293E-1,1.939748304E0,-6.334203932E-1,2.185400986E0
1.357178154E1,-4.762203392E-1,2.676285807E0,-6.356861892E-1,2.791664103E0
1.358184154E1,-4.153309438E-1,3.144647196E0,-4.526937747E-1,3.204096976E0
1.359190154E1,-3.433449948E-1,3.548492746E0,-7.936513513E-2,3.565948034E0
1.360196154E1,-3.844582298E-1,3.848961278E0,2.213466409E-1,3.874442590E0
1.361202154E1,-4.109461167E-1,3.896858160E0,5.443289995E-1,3.956093312E0
1.362208154E1,-5.749546686E-1,4.018257467E0,7.524126935E-1,4.128327846E0
1.363214154E1,-7.247120941E-1,3.996270767E0,9.797439596E-1,4.177952356E0
1.364220154E1,-1.009501317E0,4.004907104E0,1.025449598E0,4.255575249E0
1.365226154E1,-1.350796278E0,3.872340785E0,1.121891234E0,4.251860026E0
1.366232154E1,-1.507683214E0,3.634300636E0,1.127776164E0,4.093058619E0
1.367238154E1,-1.613904026E0,3.634876587E0,1.218731065E0,4.159605680E0
1.368244154E1,-1.720623605E0,3.589689304E0,1.373570891E0,4.211070159E0
1.369250154E1,-1.678444422E0,3.368392657E0,1.636233373E0,4.103718365E0
1.370256617E1,-1.644099047E0,3.045900587E0,1.898681554E0,3.947855584E0
1.371262617E1,-1.588384438E0,2.775479143E0,2.124457461E0,3.839214646E0
1.372268617E1,-1.559318806E0,2.540902299E0,2.330857449E0,3.784251059E0
1.373274617E1,-1.522588643E0,2.362081581E0,2.279216010E0,3.618360290E0
1.374280617E1,-1.388319615E0,2.335348696E0,2.019200270E0,3.385033916E0
1.375286617E1,-1.076328268E0,2.328019795E0,1.702403681E0,3.078365963E0
1.376292617E1,-7.020368841E-1,2.214514815E0,1.278085567E0,2.651496628E0
1.377298617E1,-2.812715381E-1,2.033453443E0,9.499886486E-1,2.261973699E0
1.378304617E1,-3.741340935E-3,1.809001054E0,6.300757858E-1,1.915592416E0
1.379310617E1,2.596985283E-1,1.644331182E0,3.572072813E-1,1.702605475E0
1.380316517E1,4.820818806E-1,1.299936612E0,1.088166833E-1,1.390711762E0
1.381322517E1,5.181858060E-1,7.508222508E-1,-2.428500688E-1,9.440480591E-1
1.382328517E1,4.518678555E-1,1.914395946E-1,-5.127619287E-1,7.097594471E-1
1.383334517E1,6.093646556E-1,-5.195005524E-1,-9.475231701E-1,1.240566913E0
1.384340517E1,8.467586875E-1,-1.430880913E0,-1.517246335E0,2.250879140E0
1.385346517E1,1.428557814E0,-2.046316148E0,-2.012482112E0,3.205974338E0
1.386352517E1,1.736912778E0,-2.845017740E0,-2.260304068E0,4.027401944E0
1.387358517E1,1.970816022E0,-3.526252862E0,-2.355957207E0,4.676441959E0
1.388364517E1,2.065074893E0,-3.815480121E0,-2.484468774E0,4.999500771E0
1.389370517E1,1.610718755E0,-4.198248214E0,-2.423655100E0,5.108209766E0
1.390376517E1,8.393575743E-1,-4.096264002E0,-2.536903681E0,4.890785233E0
1.391382517E1,2.882922900E-1,-3.757331316E0,-3.859475449E0,5.394089525E0
1.392388517E1,-1.711319223E-1,-3.453455611E0,-5.878140407E0,6.819690347E0
1.393394517E1,-2.295023373E-1,-3.156738653E0,-7.536865679E0,8.174473348E0
1.394400517E1,4.749298587E-1,-3.270333096E0,-7.647908982E0,8.331335351E0
1.395406517E1,1.379780341E0,-3.381799153E0,-6.527430435E0,7.479820011E0
1.396412517E1,1.833254135E0,-3.050476034E0,-5.222530707E0,6.319893333E0
1.397418517E1,2.176729522E0,-2.832962535E0,-3.967416219E0,5.338934313E0
1.398424517E1,2.457323076E0,-2.736361855E0,-2.363728157E0,4.371878738E0
1.399430517E1,2.216678869E0,-2.704241930E0,-5.704026112E-1,3.542872953E0
1.400436517E1,1.420822533E0,-2.120662326E0,7.724148488E-1,2.666940207E0
1.401442517E1,4.752122793E-1,-1.279702322E0,1.578789157E0,2.087112825E0
1.402448517E1,-6.059446192E-1,-8.354133350E-1,3.115349430E0,3.281841920E0
1.403454517E1,-1.813570068E0,-9.118177325E-1,5.247114741E0,5.626069771E0
1.404460517E1,-2.316275078E0,-1.176194326E0,7.007247105E0,7.473290796E0
1.405466517E1,-1.926809585E0,-1.148194349E0,7.288063145E0,7.625405553E0
1.406472517E1,-1.540150171E0,-1.109124423E0,5.879351950E0,6.178106416E0
1.407478517E1,-7.134456789E-1,-1.342554628E0,4.549372636E0,4.796691469E0
1.408484517E1,1.545571125E-1,-1.610606196E0,3.758223893E0,4.091721771E0
1.409490517E1,6.192663306E-1,-1.880463969E0,3.126488083E0,3.700616605E0
1.410496517E1,9.657968885E-1,-2.109278381E0,2.674876336E0,3.540731892E0
1.411502517E1,1.256202947E0,-2.277694564E0,2.730717245E0,3.771306809E0
1.412508517E1,1.310453414E0,-2.103211895E0,2.748006585E0,3.700314664E0
1.413514517E1,1.356641155E0,-1.813012244E0,2.670710194E0,3.501454207E0
1.414520517E1,1.379386239E0,-1.476647655E0,2.273895921E0,3.042005482E0
1.415526517E1,1.484970582E0,-6.826355302E-1,1.661294247E0,2.330456494E0
1.416532517E1,1.505511265E0,3.227481776E-1,1.078575353E0,1.879908335E0
1.417538517E1,1.163098902E0,1.204912925E0,6.506968689E-1,1.796669315E0
1.418544517E1,4.907878000E-1,1.747395959E0,4.256702828E-1,1.864258698E0
1.419550517E1,-3.021051675E-1,2.170136787E0,4.466959932E-1,2.236134727E0
1.420556517E1,-1.149164402E0,2.476382368E0,7.141008595E-1,2.821876767E0
1.421562517E1,-1.954965683E0,2.529996657E0,1.085991669E0,3.376707244E0
1.422568517E1,-2.628966045E0,2.742464009E0,1.238504887E0,3.995806009E0
1.423574517E1,-2.776584851E0,3.005738402E0,1.312063737E0,4.297138353E0
1.424580517E1,-2.752993090E0,2.932579209E0,1.526751276E0,4.302320447E0
1.425586417E1,-2.697511784E0,2.798097342E0,1.575453905E0,4.193801804E0
1.426592417E1,-2.517119334E0,2.628324021E0,1.569097981E0,3.963085335E0
1.427598417E1,-2.368508255E0,2.449745377E0,1.489023287E0,3.718638745E0
1.428604417E1,-2.263740184E0,2.275691308E0,1.454285856E0,3.523952029E0
1.429610417E1,-2.177197884E0,2.088108537E0,1.343624376E0,3.302380104E0
1.430616417E1,-1.908980255E0,1.887358421E0,1.105909624E0,2.903336619E0
1.431622417E1,-1.425786819E0,1.650060868E0,7.244279194E-1,2.297904422E0
1.432628417E1,-8.587788087E-1,1.513101536E0,1.649745119E-1,1.747625214E0
1.433634417E1,-3.176909208E-1,1.441492440E0,-4.924045551E-1,1.556049556E0
1.434640417E1,2.180520272E-1,1.362407679E0,-1.155951265E0,1.799979083E0
1.435646417E1,5.861582261E-1,1.374558778E0,-1.628324429E0,2.210075507E0
1.436652417E1,6.585602045E-1,1.452153084E0,-1.935525445E0,2.507729824E0
1.437658417E1,5.983923554E-1,1.561018884E0,-2.168028281E0,2.737736290E0
1.438664417E1,4.483498782E-1,1.567443219E0,-2.428822139E0,2.925247484E0
1.439670417E1,1.505289656E-1,1.602634102E0,-2.647206434E0,3.098192528E0
1.440676417E1,-1.547220039E-1,1.586032103E0,-2.752747507E0,3.180731923E0
1.441682417E1,-2.311205542E-1,1.675660563E0,-2.945278485E0,3.396457034E0
1.442688417E1,-1.952449626E-1,1.653986689E0,-2.993896036E0,3.425960601E0
1.443694417E1,-1.139137012E-1,1.436560314E0,-3.013580103E0,3.340411188E0
1.444700417E1,2.548602498E-1,1.176866171E0,-2.815092859E0,3.061815726E0
1.445706417E1,9.452088422E-1,9.051413816E-1,-2.486529333E0,2.809898361E0
1.446712417E1,1.698198071E0,3.343578243E-1,-2.114310934E0,2.732395024E0
1.447718417E1,2.399086854E0,-2.302750468E-1,-1.584958262E0,2.884568776E0
1.448724417E1,2.818034009E0,-8.959226614E-1,-8.828257754E-1,3.085996507E0
1.449730417E1,3.174925833E0,-1.659809346E0,-6.329415062E-1,3.638095114E0
1.450736417E1,3.422006362E0,-2.409529397E0,-5.323476161E-1,4.218927997E0
1.451742417E1,3.424689065E0,-2.824441972E0,-4.786834788E-1,4.464874636E0
1.452748417E1,3.118974996E0,-2.616296883E0,-4.926583242E-1,4.100698310E0
1.453754417E1,2.900450513E0,-2.004924293E0,-1.074156027E0,3.685938927E0
1.454760417E1,2.818515235E0,-1.392110950E0,-1.917958947E0,3.682467589E0
1.455766417E1,2.726813936E0,-1.003795604E0,-2.730305893E0,3.987190757E0
1.456772417E1,2.746369364E0,-1.064987301E0,-3.309918162E0,4.430835234E0
1.457778417E1,2.597420901E0,-1.346475770E0,-3.265522592E0,4.384430423E0
1.458784417E1,2.287051864E0,-1.461851276E0,-2.427123815E0,3.641228555E0
1.459790417E1,2.105078326E0,-1.441992377E0,-1.512840750E0,2.966375551E0
1.460796317E1,1.923353881E0,-1.326375382E0,-7.952926648E-1,2.468005719E0
1.461802317E1,1.894971496E0,-1.216553562E0,7.259464413E-2,2.253040062E0
1.462808317E1,1.551556334E0,-1.472126003E0,1.179017361E0,2.442245681E0
1.463814317E1,1.086678717E0,-1.760913552E0,2.227908447E0,3.040602443E0
1.464820317E1,8.017111534E-1,-2.105877056E0,3.224304107E0,3.933649187E0
1.465826317E1,3.229499066E-1,-2.374504575E0,4.041222407E0,4.698302583E0
1.466832317E1,-2.290237427E-1,-2.571338811E0,4.582914604E0,5.259975421E0
1.467838317E1,-5.790199453E-1,-2.895198544E0,4.808990181E0,5.643033339E0
1.468844317E1,-8.278113699E-1,-3.607951913E0,4.964079098E0,6.192307321E0
1.469849879E1,-8.910513461E-1,-4.583537040E0,4.831305495E0,6.718950594E0
1.470855879E1,-7.373011494E-1,-5.181990207E0,4.440781656E0,6.864195306E0
1.471861879E1,-7.015074188E-1,-5.286158354E0,3.875169376E0,6.591852584E0
1.472867879E1,-1.068723087E0,-4.696748491E0,2.006178521E0,5.217889198E0
1.473873879E1,-4.803323936E-1,-3.827266354E0,1.884316700E0,4.292940295E0
1.474879879E1,3.126494515E-1,-3.300275518E0,1.664091555E0,3.709281450E0
1.475885879E1,8.402244240E-1,-2.455633523E0,2.645862159E-1,2.608853953E0
1.476891879E1,1.089945848E0,-1.180325968E0,-2.258864191E-1,1.622398230E0
1.477897879E1,1.160229380E0,6.285113633E-2,-1.178298739E-1,1.167889704E0
1.478903879E1,1.002961791E0,1.183505099E0,-2.135236511E-1,1.565953072E0
1.479909879E1,3.672478276E-1,1.393524222E0,2.041318533E-1,1.455489793E0
1.480915879E1,1.647745371E-3,2.072294158E0,5.093822381E-1,2.133981269E0
1.481921879E1,-5.330409497E-2,2.730383077E0,8.549126297E-2,2.732241173E0
1.482927879E1,-7.646748894E-1,2.994086071E0,2.003411034E-1,3.096678163E0
1.483933879E1,-1.278891021E0,3.659553006E0,1.183526149E-1,3.878388556E0
1.484939879E1,-1.517943323E0,5.035079498E0,-5.950591502E-1,5.292473229E0
1.485945879E1,-1.519809462E0,7.638623019E0,-7.624351135E-1,7.825579194E0
1.486951879E1,-1.827011355E0,4.955762603E0,-8.837201071E-1,5.355232459E0
1.487957879E1,-2.152143150E0,2.746364102E0,-1.514608656E0,3.803718614E0
1.488963879E1,-2.600020281E0,3.758170391E0,-5.244534364E-1,4.599891472E0
1.489969879E1,-2.888078974E0,4.593330542E0,4.811273226E-1,5.447124850E0
1.490975779E1,-2.719899896E0,4.727534081E0,8.654396644E-1,5.522356358E0
1.491981779E1,-2.947120650E0,4.663684241E0,1.335609597E0,5.676206816E0
1.492987779E1,-3.253383188E0,4.450821617E0,1.997427870E0,5.863790014E0
1.493993779E1,-3.308037989E0,4.237244464E0,2.176494172E0,5.799524366E0
1.494999779E1,-3.153365979E0,3.687165313E0,2.298965858E0,5.368812630E0
1.496005779E1,-2.630261203E0,2.966170294E0,2.311869786E0,4.589246356E0
1.497011779E1,-2.166092268E0,2.441827077E0,2.432858326E0,4.071028718E0
1.498017779E1,-1.747347719E0,2.142620959E0,2.051925674E0,3.443028841E0
1.499023779E1,-1.191010293E0,1.900087810E0,1.549968231E0,2.726030212E0
1.500029779E1,-5.380049434E-1,1.639807776E0,1.182994637E0,2.092342030E0
1.501035779E1,1.263349414E-1,1.207923072E0,6.122224823E-1,1.360093759E0
1.502041779E1,8.138306773E-1,8.398227203E-1,-4.569142950E-1,1.255544999E0
1.503047779E1,1.283356247E0,6.982587057E-1,-1.308480563E0,1.961298004E0
1.504053779E1,1.493860688E0,5.899220788E-1,-2.108773767E0,2.650764911E0
1.505059779E1,1.386091241E0,1.466592783E-1,-2.516472340E0,2.876697918E0
1.506065779E1,1.217912455E0,-5.431063467E-1,-2.711091943E0,3.021306799E0
1.507071779E1,1.146937782E0,-1.701878309E0,-2.600387778E0,3.312683603E0
1.508077779E1,1.666485112E0,-2.648347226E0,-2.418546096E0,3.954779498E0
1.509083779E1,1.975219268E0,-3.229448780E0,-2.569809472E0,4.575450939E0
1.510089779E1,2.287289261E0,-3.683657568E0,-2.729624108E0,5.123658167E0
1.511095779E1,2.562339361E0,-3.821159522E0,-2.764349260E0,5.367352227E0
1.512101779E1,2.319179975E0,-3.835377612E0,-2.888152942E0,5.331992554E0
1.513107779E1,1.810572785E0,-3.504287211E0,-4.248426679E0,5.797183102E0
1.514113779E1,1.355689228E0,-3.362647183E0,-6.390392751E0,7.347272206E0
1.515119779E1,9.335003775E-1,-3.902922308E0,-7.110235283E0,8.164537420E0
1.516125679E1,9.562173951E-1,-4.378709661E0,-6.664058815E0,8.031010515E0
1.517131679E1,9.497509593E-1,-4.596508504E0,-5.002496474E0,6.859656571E0
1.518137679E1,8.825705445E-1,-4.396528466E0,-2.919438761E0,5.350842550E0
1.519143679E1,1.052967179E0,-3.923917320E0,-1.918130855E0,4.492782322E0
1.520149679E1,1.526019205E0,-3.728795149E0,-1.663093727E0,4.358730162E0
1.521155679E1,1.818358353E0,-3.669075782E0,-8.405866590E-1,4.180326557E0
1.522161679E1,1.867294285E0,-3.322135334E0,2.311369264E-1,3.817956967E0
1.523167679E1,1.519860333E0,-2.439606305E0,1.215417741E0,3.120720211E0
1.524173679E1,5.321784854E-1,-1.197093444E0,2.717416291E0,3.016719734E0
1.525179679E1,-9.063464928E-1,-6.333762467E-2,4.308754742E0,4.403503497E0
1.526185679E1,-1.673553227E0,1.337579817E-1,5.264451735E0,5.525678571E0
1.527191679E1,-2.365468288E0,-3.227569485E-1,6.523063735E0,6.946220034E0
1.528197679E1,-2.760026121E0,-7.159225595E-1,7.617260801E0,8.133446466E0
1.529203679E1,-2.420463105E0,-8.717795080E-1,6.724820741E0,7.200128829E0
1.530209679E1,-1.371056296E0,-9.376647645E-1,5.518109797E0,5.762685686E0
1.531215679E1,-3.150035405E-1,-1.172225820E0,4.673928270E0,4.828969463E0
1.532221679E1,4.114937085E-1,-1.460369591E0,4.003408755E0,4.281271783E0
1.533227679E1,1.201441433E0,-1.723967920E0,3.688474212E0,4.245040509E0
1.534233679E1,1.637841357E0,-1.886999402E0,3.427504791E0,4.241589342E0
1.535239679E1,1.729994060E0,-1.840620457E0,3.194742047E0,4.072731253E0
1.536245679E1,1.737742791E0,-1.450352726E0,2.746107701E0,3.558704897E0
1.537251679E1,1.793401267E0,-4.483732671E-1,1.922775006E0,2.667281465E0
1.538257679E1,1.660699292E0,4.752605188E-1,9.896327707E-1,1.990770635E0
1.539263579E1,9.974455279E-1,1.176246366E0,3.735097571E-1,1.586808947E0
1.540269579E1,1.190726995E-1,1.856268191E0,2.390037704E-1,1.875375351E0
1.541275579E1,-8.320237041E-1,2.160406435E0,3.386428101E-1,2.339721856E0
1.542281579E1,-1.900435134E0,2.318705766E0,5.497050758E-1,3.047987171E0
1.543287579E1,-2.777149692E0,2.457139766E0,7.207114291E-1,3.777501979E0
1.544293579E1,-3.263428119E0,2.628180179E0,9.652185988E-1,4.299876869E0
1.545299579E1,-3.418508558E0,2.834963452E0,9.552619600E-1,4.542658247E0
1.546305579E1,-3.384173707E0,2.755019735E0,8.470685899E-1,4.445254843E0
1.547311579E1,-3.099489149E0,2.630808502E0,7.439658058E-1,4.132973685E0
1.548317579E1,-2.842987002E0,2.557734679E0,7.013362415E-1,3.887988465E0
1.549323579E1,-2.578857746E0,2.470410022E0,6.288424619E-1,3.626137861E0
1.550329579E1,-2.289174403E0,2.355914522E0,4.262596822E-1,3.312453773E0
1.551335579E1,-1.966613921E0,2.187473196E0,1.280261023E-1,2.944316556E0
1.552341579E1,-1.605603903E0,2.039646229E0,-2.049940252E-1,2.603870808E0
1.553347579E1,-1.287767971E0,1.903490889E0,-3.738497727E-1,2.328387331E0
1.554353579E1,-8.977341288E-1,1.743536212E0,-5.790975671E-1,2.044798054E0
1.555359579E1,-4.741185576E-1,1.621539904E0,-7.030316417E-1,1.829872552E0
1.556365579E1,2.396481335E-2,1.438182916E0,-9.749773094E-1,1.737678096E0
1.557371579E1,5.451300681E-1,1.315870859E0,-1.355176427E0,1.966007644E0
1.558377579E1,9.625896907E-1,1.271347820E0,-1.752036309E0,2.369079024E0
1.559383579E1,1.232899454E0,1.257612711E0,-1.916581782E0,2.602866981E0
1.560389479E1,1.221874529E0,1.322513296E0,-2.005269864E0,2.695018740E0
1.561395479E1,9.806885773E-1,1.365072255E0,-2.029842203E0,2.635418698E0
1.562401479E1,5.525975472E-1,1.369965205E0,-2.280342622E0,2.717007764E0
1.563407479E1,2.636193788E-1,1.355116786E0,-2.529683247E0,2.881862941E0
1.564413479E1,1.383913153E-1,1.413197179E0,-2.788614328E0,3.129320740E0
1.565419479E1,9.474769771E-2,1.460996413E0,-2.947755657E0,3.291314488E0
1.566425479E1,1.604955447E-1,1.347154047E0,-2.885342185E0,3.188382407E0
1.567431479E1,4.583299059E-1,1.148263346E0,-2.399863072E0,2.699614376E0
1.568437479E1,1.021411511E0,8.526602823E-1,-1.670752995E0,2.135819890E0
1.569443479E1,1.684222056E0,4.201066571E-1,-1.194381505E0,2.107045495E0
1.570449508E1,2.160650264E0,-4.824303746E-2,-6.604428618E-1,2.259849935E0
1.571455508E1,2.541211032E0,-7.713068014E-1,-2.469289403E-1,2.667141090E0
1.572461508E1,2.825432491E0,-1.825500142E0,8.557297781E-2,3.364943129E0
1.573467508E1,2.860296514E0,-2.710650478E0,3.487713571E-1,3.956079324E0
1.574473508E1,2.785814681E0,-3.258367939E0,3.158841312E-1,4.298547179E0
1.575479508E1,2.682636468E0,-3.276424726E0,-7.673067212E-2,4.235255010E0
1.576485508E1,2.689756038E0,-2.639715566E0,-9.552372555E-1,3.887848251E0
1.577491508E1,2.916667181E0,-1.966492884E0,-2.431166872E0,4.276051224E0
1.578497508E1,3.236835567E0,-1.571681281E0,-3.592260325E0,5.084448916E0
1.579503408E1,3.543452446E0,-1.569709015E0,-4.081681631E0,5.628513709E0
1.580509408E1,3.434821120E0,-1.720195881E0,-3.800600127E0,5.403853377E0
1.581515408E1,3.096256224E0,-1.732716524E0,-2.931105126E0,4.602226246E0
1.582521408E1,2.777704593E0,-1.669511046E0,-1.959236197E0,3.787019463E0
1.583527408E1,2.495550125E0,-1.582892148E0,-1.014377310E0,3.124464643E0
1.584533408E1,2.036901546E0,-1.340645512E0,-6.165523455E-2,2.439282613E0
1.585539408E1,1.518429519E0,-1.205149738E0,1.045448245E0,2.202493162E0
1.586545408E1,8.989059108E-1,-1.036784425E0,2.144761186E0,2.546164631E0
1.587551408E1,2.953376001E-1,-7.596246493E-1,3.140701202E0,3.244727716E0
1.588557408E1,-2.546702152E-1,-7.708290839E-1,3.883299929E0,3.967247501E0
1.589563408E1,-5.878597659E-1,-1.129301995E0,4.359122950E0,4.541239368E0
1.590569408E1,-7.308697969E-1,-1.722348241E0,4.728318485E0,5.085041772E0
1.591575408E1,-7.716786844E-1,-2.539663859E0,5.019952167E0,5.678494542E0
1.592581408E1,-7.383934093E-1,-3.571277592E0,5.002454374E0,6.190621796E0
1.593587408E1,-6.480036414E-1,-4.487498862E0,4.879619576E0,6.660949029E0
1.594593408E1,-3.017186666E-1,-4.887639032E0,4.513847001E0,6.659944760E0
1.595599408E1,1.960366756E-1,-4.656531926E0,3.819638661E0,6.025890761E0
1.596605408E1,4.400135028E-1,-4.016224390E0,2.920426941E0,4.985234574E0
1.597611408E1,2.554280144E-1,-2.896533464E0,2.146206764E0,3.614049398E0
1.598617308E1,-4.314601958E-2,-1.628227365E0,1.638268204E0,2.310175023E0
1.599623308E1,-2.935723257E-1,-5.395214188E-1,1.228650867E0,1.373626960E0
1.600629308E1,-6.253088433E-1,5.997413081E-1,8.972306836E-1,1.247286529E0
1.601635308E1,-7.552415764E-1,1.501724609E0,4.800508502E-1,1.748146292E0
1.602641308E1,-8.602944070E-1,2.052862691E0,1.933358467E-1,2.234218083E0
1.603647308E1,-9.733509064E-1,2.509907379E0,1.274380186E-1,2.695048698E0
1.604653308E1,-1.420044853E0,2.579024976E0,3.055889386E-1,2.959946251E0
1.605659308E1,-1.699003817E0,2.842030397E0,5.183278933E-1,3.351479458E0
1.606665308E1,-1.880600209E0,3.264143819E0,6.046512151E-1,3.815349933E0
1.607671308E1,-2.018172330E0,3.751408086E0,3.844827881E-1,4.277137968E0
1.608677308E1,-1.884427797E0,3.952568677E0,2.042411962E-1,4.383558113E0
1.609683308E1,-1.674184141E0,4.135980045E0,-3.379097155E-1,4.474752110E0
1.610689308E1,-1.798650020E0,4.336358278E0,-8.792618975E-1,4.776216755E0
1.611695308E1,-1.973473290E0,4.402313701E0,-1.040245392E0,4.935288565E0
1.612701308E1,-2.174492962E0,4.457864004E0,-1.001449409E0,5.060026881E0
1.613707308E1,-2.346046761E0,4.214869509E0,-9.108824703E-1,4.909049527E0
1.614713308E1,-2.347856767E0,3.796719330E0,-3.775123224E-1,4.479958105E0
1.615719308E1,-2.367074226E0,3.399930784E0,2.486010978E-1,4.150225564E0
1.616725308E1,-2.484283125E0,2.963571206E0,7.133109006E-1,3.932331291E0
1.617731308E1,-2.599636411E0,2.621545928E0,1.134975256E0,3.862483832E0
1.618737308E1,-2.522189455E0,2.336730977E0,1.543170258E0,3.768703458E0
1.619743308E1,-2.210820544E0,2.142283575E0,1.626842744E0,3.481913799E0
1.620749208E1,-1.709904782E0,1.883999780E0,1.508647127E0,2.957912387E0
1.621755208E1,-1.223909944E0,1.700752720E0,1.146585195E0,2.388550392E0
1.622761208E1,-6.428884971E-1,1.510780191E0,5.670568344E-1,1.737042274E0
1.623767208E1,-5.930246115E-3,1.368782898E0,1.626683700E-1,1.378427651E0
1.624773208E1,5.811033082E-1,1.240671573E0,-5.186538756E-2,1.370998550E0
1.625779208E1,9.561197466E-1,1.021495126E0,-3.955340257E-1,1.453982265E0
1.626785208E1,1.312599927E0,7.858675379E-1,-8.488850275E-1,1.749603425E0
1.627791208E1,1.671807248E0,4.774561483E-1,-1.314385959E0,2.179567456E0
1.628797208E1,1.847229565E0,-3.472029877E-1,-1.772255689E0,2.583349997E0
1.629803208E1,2.027556526E0,-1.585081930E0,-1.876539903E0,3.185101599E0
1.630809208E1,2.321836365E0,-2.250496241E0,-1.827016617E0,3.713979962E0
1.631815208E1,2.328978154E0,-2.607983311E0,-1.863508506E0,3.962118139E0
1.632821208E1,2.258459564E0,-3.315364258E0,-1.855522086E0,4.419869000E0
1.633827208E1,1.916178762E0,-3.838944413E0,-1.869757425E0,4.680302136E0
1.634833208E1,1.255593082E0,-4.204815221E0,-1.745605834E0,4.722724294E0
1.635839208E1,3.614222467E-1,-3.912069692E0,-1.955869662E0,4.388660553E0
1.636845208E1,-5.358961451E-1,-3.460302116E0,-3.264181241E0,4.787040274E0
1.637851208E1,-1.189670988E0,-2.835112556E0,-6.834905101E0,7.494605260E0
1.638857208E1,-1.342357576E0,-2.760978633E0,-9.509987551E0,9.993237218E0
1.639863208E1,-4.646478224E-1,-3.519571248E0,-8.740405093E0,9.433873042E0
1.640869208E1,8.851898047E-1,-3.901828294E0,-6.503298976E0,7.635490986E0
1.641875208E1,1.576791455E0,-3.197351659E0,-5.013286926E0,6.151615619E0
1.642881208E1,1.870061188E0,-2.921758937E0,-4.020344338E0,5.310082177E0
1.643887208E1,1.893538343E0,-2.993477960E0,-2.457161400E0,4.310921004E0
1.644893208E1,1.700143440E0,-2.799487810E0,-4.652249426E-2,3.275634909E0
1.645899208E1,1.634687954E0,-2.617803125E0,1.507841381E0,3.434921184E0
1.646905208E1,1.186790065E0,-1.841201085E0,2.421738676E0,3.265472448E0
1.647911208E1,-1.819852316E-1,-8.675747752E-1,3.852016741E0,3.952700037E0
1.648917208E1,-1.261276576E0,-7.868375909E-1,5.330420022E0,5.533833175E0
1.649923208E1,-1.522272309E0,-1.191545021E0,6.932889233E0,7.197363797E0
1.650929108E1,-1.735458868E0,-1.337029009E0,7.534220399E0,7.846269245E0
1.651935108E1,-1.835097762E0,-1.519039384E0,6.709345500E0,7.119717796E0
1.652941108E1,-1.340746669E0,-1.953427280E0,5.809924450E0,6.274448333E0
1.653947108E1,-4.589532191E-1,-2.145918204E0,5.106152989E0,5.557733472E0
1.654953108E1,2.972385299E-1,-2.350502340E0,4.388507255E0,4.987204420E0
1.655959108E1,1.030943057E0,-2.673040602E0,4.032165654E0,4.946347088E0
1.656965108E1,1.416369293E0,-2.901354493E0,3.664184878E0,4.883667750E0
1.657971108E1,1.754623702E0,-2.610002940E0,3.374819039E0,4.613049233E0
1.658977108E1,2.074685669E0,-2.127592446E0,3.257007877E0,4.408976134E0
1.659983108E1,2.439290555E0,-1.448717260E0,2.804279311E0,3.989097964E0
1.660989108E1,2.693219928E0,-4.843260419E-1,2.063612504E0,3.427317007E0
1.661995108E1,2.364843805E0,6.003874254E-1,1.193190135E0,2.715999629E0
1.663001108E1,1.573043098E0,1.593313056E0,7.340883967E-1,2.356267569E0
1.664007108E1,5.610403419E-1,2.236424916E0,5.982482216E-1,2.382071285E0
