"Time (s)","Linear Acceleration x (m/s^2)","Linear Acceleration y (m/s^2)","Linear Acceleration z (m/s^2)","Absolute acceleration (m/s^2)"
-2.400666664E-3,-5.391381338E-1,3.814817047E-1,1.662515438E-1,6.810563811E-1
7.649333336E-3,-7.426548600E-1,3.953635794E-1,6.542285872E-1,1.065769039E0
1.770033333E-2,-5.131905296E-1,6.932482266E-1,8.193767613E-1,1.189678906E0
2.775133333E-2,-4.521236712E-1,7.604052526E-1,5.707040352E-1,1.052774932E0
3.780233334E-2,-4.638248268E-1,7.192355919E-1,9.764031529E-2,8.613750274E-1
4.785333333E-2,-3.565602869E-1,9.125024414E-1,-2.620669430E-1,1.014137578E0
5.790333333E-2,-2.436449978E-1,1.084096586E0,-5.505802578E-1,1.240067302E0
6.795433334E-2,-1.158175546E-1,1.182747885E0,-7.268077362E-1,1.393038316E0
7.800533334E-2,3.822909594E-3,1.198252362E0,-5.331812829E-1,1.311527971E0
8.805633333E-2,-5.733487308E-3,1.235054153E0,-5.264774501E-1,1.342598279E0
9.810733334E-2,-3.001168218E-1,1.256346788E0,-5.237631726E-1,1.393845479E0
1.081583333E-1,-4.729330346E-1,1.135746796E0,-5.706601810E-1,1.356185637E0
1.182083333E-1,-3.539959905E-1,6.472926199E-1,-9.753909999E-1,1.222983442E0
1.282593333E-1,-6.055815071E-1,1.710199481E-1,-6.946340168E-1,9.372796816E-1
1.383103333E-1,-2.313733001E-1,9.301107466E-2,-1.108419834E0,1.136124637E0
1.483613333E-1,-9.749895886E-2,-2.192647398E-2,-9.329367059E-1,9.382737951E-1
1.584148333E-1,-7.293962985E-3,-1.042874300E-1,-1.112904648E0,1.117804019E0
1.684658333E-1,1.040719602E-1,-3.655579823E-1,-8.697721589E-1,9.491929307E-1
1.785168333E-1,2.456386060E-1,-6.282643184E-1,-9.688146365E-1,1.180532159E0
1.885678333E-1,4.777884163E-1,-4.328565109E-1,-1.495749924E0,1.628776953E0
1.986188333E-1,6.402983268E-1,-4.451280624E-2,-1.230861114E0,1.388157923E0
2.086688333E-1,7.966863486E-1,3.945195338E-1,-2.370224413E0,2.531465696E0
2.187198333E-1,1.061183979E0,7.376338559E-1,-2.799846244E0,3.083724069E0
2.287708333E-1,1.088375871E0,8.832178313E-1,-2.494417520E0,2.861250520E0
2.388218333E-1,1.130596861E0,8.037497851E-1,-1.456978206E0,2.011727733E0
2.488728333E-1,1.191101071E0,5.297749874E-1,-1.240165204E-1,1.309489746E0
2.589228333E-1,9.444529434E-1,2.875105172E-1,3.855542904E-1,1.059861203E0
2.689738333E-1,5.853622739E-1,1.635498378E-1,6.562973320E-2,6.113139971E-1
2.790248333E-1,3.643183726E-1,8.872477323E-2,-3.488279289E-1,5.121336603E-1
2.890758333E-1,4.608238895E-1,-6.424452782E-2,-7.237046188E-1,8.603687534E-1
2.991268333E-1,1.010711252E0,-2.867348841E-1,-9.568535721E-1,1.421028813E0
3.091768333E-1,1.995582489E0,-6.473756504E-1,-1.154245048E0,2.394520063E0
3.192278333E-1,2.894249541E0,-1.052373979E0,-1.148384968E0,3.286785578E0
3.292788333E-1,2.981575368E0,-1.726448601E0,8.539642113E-1,3.549601572E0
3.393298333E-1,2.886896667E0,-2.873671727E0,4.361231748E0,5.967621296E0
3.493808333E-1,1.803629947E0,-4.642151869E0,3.972493064E0,6.370506739E0
3.594308333E-1,-6.187631777E-1,-5.951134123E0,4.042585977E0,7.220897909E0
3.694818333E-1,-3.857202052E-1,-4.454391927E0,6.598943637E0,7.970975137E0
3.795328333E-1,5.440302068E-1,-2.554701436E0,4.453241195E0,5.162734298E0
3.895838333E-1,3.113373363E-1,-1.378795963E0,1.815311369E0,2.300731320E0
3.996348333E-1,2.383345565E-1,-4.919221598E-1,1.219691763E0,1.336577259E0
4.096848333E-1,2.225204694E-1,-6.517233476E-1,8.821249866E-1,1.119108204E0
4.197358333E-1,5.396249145E-1,-1.800928095E0,6.087126911E-1,1.976124539E0
4.297868333E-1,2.061399333E0,-2.540538310E0,1.711468912E0,3.692265964E0
4.398378333E-1,5.567379606E0,-1.576631826E0,1.348560303E0,5.941388599E0
4.498888333E-1,4.423040326E0,-2.246072530E0,1.745514910E0,5.258797376E0
4.599388333E-1,3.757067314E0,-2.118483653E0,3.143439746E0,5.337109820E0
4.699898333E-1,2.722690480E0,-1.155724978E0,3.347233922E0,4.466846606E0
4.800408333E-1,1.395943215E0,-2.203423231E0,2.552612518E0,3.649597521E0
4.900918333E-1,1.403638443E0,-4.150725261E0,2.257731001E0,4.929104416E0
5.001428333E-1,1.813352844E0,-5.826469731E0,2.497173897E0,6.593320524E0
5.101928333E-1,1.932888935E0,-7.490092632E0,1.692144449E0,7.918389994E0
5.202438333E-1,1.905935318E0,-9.430141482E0,9.107190406E-1,9.663827760E0
5.302948333E-1,1.813134450E0,-1.059268022E1,1.316010023E0,1.082701312E1
5.403458333E-1,2.333646863E0,-1.127734473E1,1.351704935E0,1.159532312E1
5.503968333E-1,2.655531115E0,-1.116637277E1,1.237325796E0,1.154429302E1
5.604468333E-1,2.537332866E0,-1.037207413E1,1.206103418E0,1.074582083E1
5.704978333E-1,2.387236595E0,-1.016138258E1,8.255660391E-1,1.047063292E1
5.805488333E-1,1.328587384E0,-1.053653292E1,7.118224919E-2,1.062020420E1
5.905998333E-1,-7.170972651E-1,-1.070142206E1,-5.976988757E-1,1.074206249E1
6.006508333E-1,-2.869635102E0,-1.030296706E1,-7.300582033E-1,1.072002429E1
6.107018333E-1,-3.867941340E0,-9.714040174E0,4.439632970E-1,1.046521142E1
6.207518333E-1,-4.717434186E0,-8.802748107E0,2.131466226E0,1.021203740E1
6.308028333E-1,-5.651515192E0,-5.564004008E0,3.163472307E0,8.538461313E0
6.408538333E-1,-7.373951726E0,-2.948174026E0,3.230689559E0,8.573461913E0
6.509048333E-1,-9.723656505E0,-1.087404648E0,2.559397627E0,1.011347917E1
6.609558333E-1,-1.152359554E1,7.419724900E-1,1.924896376E0,1.170679305E1
6.710058333E-1,-1.306534610E1,2.451350437E0,2.658396835E0,1.355652837E1
6.810568333E-1,-1.460440693E1,5.292635314E0,3.753887891E0,1.598100012E1
6.911078333E-1,-1.544419808E1,7.271303270E0,3.895142587E0,1.750906169E1
7.011588333E-1,-1.606170264E1,7.396103902E0,4.176568492E0,1.816932495E1
7.112098333E-1,-1.631362642E1,7.469686434E0,4.516732602E0,1.850220246E1
7.212598333E-1,-1.562456246E1,7.842841703E0,4.961188819E0,1.817279595E1
7.313108333E-1,-1.476326643E1,9.331967901E0,5.808749160E0,1.840601063E1
7.413618333E-1,-1.363765753E1,1.104826720E1,6.737357756E0,1.880005055E1
7.514128333E-1,-1.252151996E1,1.161397479E1,7.450854306E0,1.863298426E1
7.614638333E-1,-1.145338803E1,1.148349534E1,7.750756828E0,1.797567784E1
7.715138333E-1,-1.068742850E1,1.056384409E1,7.611773189E0,1.684502957E1
7.815648333E-1,-9.508484817E0,9.402768327E0,7.739269388E0,1.545055424E1
7.916158333E-1,-8.072506301E0,8.476021484E0,7.569732878E0,1.393948184E1
8.016668333E-1,-6.326644651E0,7.725910254E0,7.327448820E0,1.238578330E1
8.117178333E-1,-4.507444884E0,7.439927030E0,7.135709263E0,1.125112973E1
8.217678333E-1,-2.865116374E0,7.080910327E0,6.717805837E0,1.017236935E1
8.318188333E-1,-9.913375264E-1,6.655328338E0,6.433929949E0,9.309758319E0
8.418698333E-1,2.558624625E-1,6.983284045E0,6.056855875E0,9.247552366E0
8.519208333E-1,8.931481576E-1,7.164724317E0,5.848785045E0,9.291892954E0
8.619718333E-1,1.448833035E0,6.163112063E0,5.554961289E0,8.422627998E0
8.720218333E-1,2.393506272E0,3.545001374E0,5.085300649E0,6.645012393E0
8.820728333E-1,3.181875249E0,2.607434843E0,4.719138064E0,6.260456104E0
8.921238333E-1,3.342295949E0,2.541263072E0,4.379502543E0,6.067042339E0
9.021748333E-1,3.376348963E0,3.129030452E0,3.691574113E0,5.900701935E0
9.122258333E-1,3.523251486E0,3.219118504E0,3.068216486E0,5.673621188E0
9.222758333E-1,4.301286678E0,1.616135908E0,2.784834688E0,5.372919746E0
9.323268333E-1,5.249640153E0,-5.592487550E-1,2.386508324E0,5.793695098E0
9.423778333E-1,5.762282506E0,-3.272068550E0,1.840081344E0,6.877225576E0
9.524288333E-1,6.637979649E0,-3.167773519E0,2.083671524E0,7.644556881E0
9.624798333E-1,6.921896467E0,-1.603618189E0,2.341435647E0,7.481080329E0
9.725298333E-1,6.394428499E0,-9.044063866E-1,2.284934002E0,6.850371532E0
9.825808333E-1,5.416184642E0,-1.504452919E0,2.137889392E0,6.014067319E0
9.926318333E-1,3.582207207E0,-2.196449842E0,1.697403435E0,4.531862619E0
1.002682833E0,2.561589748E0,4.253557026E-1,2.478069874E0,3.589359248E0
1.012733833E0,2.578972936E0,2.290337414E0,3.139805117E0,4.664238742E0
1.022783833E0,4.617590055E0,5.313645530E-1,2.668917146E0,5.359813890E0
1.032834833E0,2.277853024E0,-4.283825723E0,8.869641423E-2,4.852591501E0
1.042885833E0,-1.636895278E0,-1.035725261E1,5.725060008E-2,1.048596135E1
1.052936833E0,-3.226029328E0,-1.230401055E1,-1.827230479E0,1.285047517E1
1.062987833E0,-6.161849064E0,-9.280273837E0,-2.806882784E0,1.148783954E1
1.073037833E0,-7.202242391E0,-7.096555138E0,-1.697958335E0,1.025263151E1
1.083088833E0,-7.073908871E0,-5.374181753E0,-5.306254649E-1,8.899639297E0
1.093139833E0,-5.138312091E0,-3.043592691E0,9.107992206E-1,6.041130923E0
1.103190833E0,-2.954474693E0,-4.357438660E-1,1.950125358E0,3.566760763E0
1.113241833E0,-1.537808946E0,1.436825777E0,2.176912540E0,3.027915599E0
1.123291833E0,-6.610610586E-1,3.507734145E0,2.006918778E0,4.094987611E0
1.133342833E0,-2.820813775E-2,4.475713214E0,1.568439585E0,4.742658243E0
1.143393833E0,9.082865989E-1,4.205201138E0,1.509383292E0,4.559269577E0
1.153444833E0,4.660406291E-2,2.383351997E0,8.272453594E-1,2.523266448E0
1.163492125E0,-2.957027003E0,2.346165460E0,2.821864520E0,4.712899365E0
1.173542125E0,-2.885542452E-2,3.350591978E0,4.182410445E0,5.359091003E0
1.183593125E0,2.565065918E0,4.089270147E0,4.666045931E0,6.713693330E0
1.193644125E0,2.823692944E0,4.271996221E0,3.204748971E0,6.040994084E0
1.203695125E0,1.607799532E0,3.785452330E0,2.059951270E0,4.599789986E0
1.213746125E0,1.496490766E0,4.213529912E0,1.851019145E0,4.839379176E0
1.223796125E0,9.538925421E-1,4.462551717E0,1.017521943E0,4.675428292E0
1.233847125E0,-4.432014048E-2,4.427846153E0,-1.754246557E-1,4.431541452E0
1.243898125E0,-8.340749073E-1,3.620872505E0,-8.068607962E-1,3.802291808E0
1.253949125E0,-1.355752086E0,2.539422369E0,-9.875525507E-1,3.043351726E0
1.264000125E0,-1.941793660E0,2.451904753E0,-4.046974897E-2,3.127944587E0
1.274050125E0,-4.278336942E0,-3.181032665E0,1.423108502E-1,5.333234307E0
1.284101125E0,-5.653629545E0,-6.360619313E0,-2.536216633E-1,8.513831630E0
1.294152125E0,-4.852242912E0,-7.248365228E0,-1.024251942E0,8.782491207E0
1.304203125E0,-2.319845534E0,-6.291451430E0,-4.366216500E0,8.001742992E0
1.314254125E0,-1.169450001E0,-6.432313194E0,-9.860259157E0,1.183076401E1
1.324304125E0,-3.320257793E0,-6.859669814E0,-6.059542086E0,9.736387012E0
1.334355125E0,-4.954943992E0,-5.378872390E0,1.769287788E0,7.524235339E0
1.344406125E0,-4.009031730E0,-1.730232042E0,4.375064507E0,6.181199541E0
1.354457125E0,-2.109698796E0,1.545379921E0,4.784701724E0,5.452742310E0
1.364508125E0,2.289756128E-1,3.976652774E0,3.656550753E0,5.407084291E0
1.374558125E0,1.412901017E0,4.435991324E0,2.893944901E0,5.481717377E0
1.384609125E0,1.818244332E0,3.584712739E0,3.192183305E0,5.132856137E0
1.394660125E0,2.507816707E0,2.783735996E0,2.671990735E0,4.601941461E0
1.404711125E0,2.639623472E0,2.261305404E0,1.810552905E0,3.919083570E0
1.414762125E0,2.173735017E0,1.887147921E0,2.570248890E0,3.859097117E0
1.424812125E0,2.378128972E0,1.589621124E0,2.615789344E0,3.876176804E0
1.434863125E0,3.107804475E0,1.210766573E0,2.163661726E0,3.975655470E0
1.444914125E0,3.950682950E0,8.712982821E-1,1.583114634E0,4.344342115E0
1.454965125E0,4.515980065E0,4.326869416E-1,9.627756321E-1,4.637696719E0
1.465016125E0,4.733381297E0,-1.767116278E-1,2.543208441E-1,4.743501301E0
1.475066125E0,4.583191470E0,-7.350043631E-1,-4.870876819E-2,4.642009049E0
1.485117125E0,3.500493538E0,-1.069362187E0,2.073131771E-1,3.666056362E0
1.495168125E0,1.533536531E0,-1.030911482E0,1.071762762E0,2.136162024E0
1.505219125E0,3.657629272E-1,-1.314296204E0,2.267412236E0,2.646188821E0
1.515269125E0,-4.995228092E-1,-1.398218951E0,2.946863372E0,3.299779236E0
1.525320125E0,-1.030703613E0,-1.453801414E0,3.246411845E0,3.703387416E0
1.535371125E0,-1.330438612E0,-1.620435365E0,3.458852592E0,4.044692686E0
1.545422125E0,-1.569977403E0,-1.984357882E0,3.525108562E0,4.339227537E0
1.555473125E0,-1.778124539E0,-2.379274734E0,3.395153024E0,4.511068520E0
1.565523125E0,-1.930692867E0,-2.767192469E0,3.043457328E0,4.543958804E0
1.575574125E0,-1.901607209E0,-3.010414420E0,2.505880693E0,4.354094970E0
1.585625125E0,-1.755726195E0,-3.283053129E0,1.935327809E0,4.196010730E0
1.595676125E0,-1.544719770E0,-3.588964834E0,1.480622592E0,4.178405319E0
1.605727125E0,-1.221986868E0,-3.555730430E0,1.077901607E0,3.911309585E0
1.615777125E0,-7.091994309E-1,-2.956162784E0,6.481123996E-1,3.108361614E0
1.625828125E0,-1.831070931E-1,-1.987359257E0,2.306763120E-1,2.009063609E0
1.635879125E0,2.256881254E-1,-8.862706625E-1,-1.766288897E-1,9.314550885E-1
1.645930125E0,5.472301687E-1,2.146933866E-1,-5.007909241E-1,7.722341985E-1
1.655981125E0,7.321863706E-1,1.145646717E0,-7.454337493E-1,1.550572396E0
1.666031125E0,7.716534682E-1,1.781991595E0,-9.775942308E-1,2.174082243E0
1.676082125E0,6.159799030E-1,2.171270562E0,-1.160501568E0,2.537835886E0
1.686133125E0,2.766849091E-1,2.410957872E0,-1.250859469E0,2.730187138E0
1.696184125E0,-1.407720092E-1,2.593516130E0,-1.082055323E0,2.813713987E0
1.706235125E0,-5.133386104E-1,2.733257568E0,-8.487812394E-1,2.907686891E0
1.716285125E0,-7.375786728E-1,2.774714327E0,-8.323824307E-1,2.989301324E0
1.726336125E0,-8.912649887E-1,2.698040957E0,-9.243024150E-1,2.987994853E0
1.736387125E0,-9.637854463E-1,2.460709491E0,-1.146575840E0,2.880730765E0
1.746438125E0,-9.947891378E-1,2.094604209E0,-1.448580727E0,2.734110156E0
1.756489125E0,-9.302593390E-1,1.628477626E0,-1.725532635E0,2.548486745E0
1.766539125E0,-7.700803480E-1,1.068040132E0,-1.888287836E0,2.302034843E0
1.776590125E0,-5.746459356E-1,3.726804757E-1,-1.864940196E0,1.986733657E0
1.786641125E0,-4.316067051E-1,-3.811554301E-1,-1.626290475E0,1.725220136E0
1.796692125E0,-4.161729428E-1,-9.498240495E-1,-1.130718191E0,1.534238987E0
1.806743125E0,-5.102368817E-1,-1.181275556E0,-4.883261222E-1,1.376305205E0
1.816793125E0,-7.111890192E-1,-1.129750476E0,5.502756178E-2,1.336096551E0
1.826844125E0,-9.178304243E-1,-9.261176831E-1,5.058312240E-1,1.398560645E0
1.836895125E0,-1.123814968E0,-6.074555397E-1,9.088338983E-1,1.567782309E0
1.846946125E0,-1.289327716E0,-3.204566538E-1,1.234520302E0,1.813587274E0
1.856997125E0,-1.391045587E0,-1.049627835E-1,1.378912030E0,1.961484998E0
1.867047125E0,-1.407586191E0,5.479659677E-2,1.610133741E0,2.139353223E0
1.877098125E0,-1.350039356E0,1.704334724E-1,2.029788116E0,2.443704898E0
1.887149125E0,-1.183154266E0,3.206180370E-1,2.493322628E0,2.778364208E0
1.897200125E0,-9.184970069E-1,5.347945297E-1,2.680608361E0,2.883626731E0
1.907251125E0,-6.571852317E-1,8.592348915E-1,2.692448388E0,2.901629775E0
1.917301125E0,-4.798394734E-1,1.272052410E0,2.609796825E0,2.942686311E0
1.927352125E0,-3.778073144E-1,1.705655025E0,2.342494870E0,2.922204587E0
1.937403125E0,-3.294628277E-1,2.112692571E0,2.032503855E0,2.950099587E0
1.947454125E0,-2.847661266E-1,2.380825415E0,1.755215148E0,2.971565517E0
1.957505125E0,-1.850535581E-1,2.415301183E0,1.606421928E0,2.906633110E0
1.967555125E0,-5.151837358E-2,2.233884301E0,1.574349073E0,2.733398657E0
1.977606125E0,-8.682256434E-3,1.900936825E0,1.575343100E0,2.468874658E0
1.987657125E0,-1.106678935E-1,1.500285024E0,1.594559974E0,2.192196170E0
1.997708125E0,-3.819822264E-1,1.048353142E0,1.742909098E0,2.069465355E0
2.007759125E0,-7.121645540E-1,5.382958424E-1,1.959324490E0,2.153112450E0
2.017809125E0,-9.974417272E-1,-2.387067318E-2,2.102670151E0,2.327376543E0
2.027860125E0,-1.176313901E0,-5.941279811E-1,2.128296158E0,2.503267263E0
2.037911125E0,-1.256356144E0,-1.193267026E0,2.121010820E0,2.738796059E0
2.047962125E0,-1.293585951E0,-1.774850975E0,2.046579565E0,3.001990758E0
2.058013125E0,-1.297569951E0,-2.330076261E0,1.960797403E0,3.310237094E0
2.068063125E0,-1.335732096E0,-2.806817880E0,1.908437926E0,3.647539192E0
2.078114125E0,-1.546386519E0,-3.196685076E0,1.950356615E0,4.051419217E0
2.088165125E0,-1.918182018E0,-3.536272650E0,2.137870681E0,4.555780676E0
2.098216125E0,-2.305391071E0,-3.784716166E0,2.338010640E0,5.010508776E0
2.108267125E0,-2.580687047E0,-3.883342906E0,2.571593457E0,5.324790200E0
2.118317125E0,-2.757437266E0,-3.983831400E0,2.749585333E0,5.570869987E0
2.128368125E0,-2.849592601E0,-4.027122431E0,2.626330412E0,5.588873276E0
2.138419125E0,-2.821678578E0,-3.924220791E0,2.214811561E0,5.316650173E0
2.148470125E0,-2.525533478E0,-3.639958987E0,1.519451320E0,4.683626062E0
2.158521083E0,-1.823158040E0,-3.073568442E0,2.305665305E-1,3.581045816E0
2.168571083E0,-1.185392288E0,-2.588137861E0,-1.024939574E0,3.025576573E0
2.178622083E0,-8.844764444E-1,-2.137861326E0,-1.706121487E0,2.874647832E0
2.188673083E0,-7.802235129E-1,-1.481625389E0,-1.767718542E0,2.434910957E0
2.198724083E0,-7.025435454E-1,-6.246522009E-1,-1.469112056E0,1.744146793E0
2.208775083E0,-5.490836629E-1,2.028679776E-1,-1.087737355E0,1.235241207E0
2.218825083E0,-3.333398241E-1,6.172198051E-1,-8.245611951E-1,1.082578815E0
2.228876083E0,-5.733955542E-2,5.536740196E-1,-8.303959854E-1,9.997000736E-1
2.238927083E0,3.098047811E-1,1.665105754E-1,-1.197186853E0,1.247782487E0
2.248978083E0,7.845843664E-1,-2.279110175E-1,-1.939121482E0,2.104212010E0
2.259029083E0,1.342807227E0,-4.273086727E-1,-2.699487559E0,3.045153039E0
2.269079083E0,1.911711782E0,-5.565105039E-1,-3.210679218E0,3.777936860E0
2.279130083E0,2.507223214E0,-6.444777703E-1,-3.373424771E0,4.252236415E0
2.289181083E0,3.047960562E0,-6.498694879E-1,-3.198393048E0,4.465659193E0
2.299232083E0,3.458961350E0,-6.062030661E-1,-2.760564065E0,4.466834420E0
2.309283083E0,3.721294926E0,-5.123242646E-1,-2.129240191E0,4.317890210E0
2.319333083E0,3.779201364E0,-2.533200932E-1,-1.264695443E0,3.993242866E0
2.329384083E0,3.492022384E0,2.414502454E-1,-1.328557563E-1,3.502880130E0
2.339435083E0,2.849975886E0,8.480386430E-1,8.301745221E-1,3.087186717E0
2.349486083E0,1.964902441E0,1.376592439E0,1.494310924E0,2.826448918E0
2.359537083E0,1.036595853E0,1.741314855E0,1.878598123E0,2.763302244E0
2.369587083E0,2.702693989E-1,2.053086054E0,1.990191356E0,2.872119344E0
2.379638083E0,-2.713999763E-1,2.301755272E0,1.977907233E0,3.046941467E0
2.389689083E0,-6.659890920E-1,2.472638980E0,1.969894209E0,3.230784454E0
2.399740083E0,-9.774927816E-1,2.532426175E0,1.860514585E0,3.290925249E0
2.409790083E0,-1.187489100E0,2.557618319E0,1.714647897E0,3.300236240E0
2.419841083E0,-1.344700263E0,2.596822146E0,1.564088087E0,3.316334664E0
2.429892083E0,-1.431635789E0,2.721014083E0,1.651020835E0,3.489895195E0
2.439943083E0,-1.343905042E0,2.868938114E0,1.973786116E0,3.732655662E0
2.449994083E0,-9.746606827E-1,2.961015973E0,2.374458382E0,3.918626245E0
2.460044083E0,-5.895715383E-1,3.055467802E0,2.658969862E0,4.093116028E0
2.470095083E0,-2.763207189E-1,3.130692816E0,2.837897293E0,4.234530870E0
2.480146083E0,-6.656178852E-2,3.157599363E0,2.986104037E0,4.346456203E0
2.490197083E0,2.859199832E-2,3.139464809E0,3.126257118E0,4.430636563E0
2.500248083E0,5.132363389E-2,3.044882587E0,3.127854577E0,4.365480311E0
2.510298083E0,2.945233388E-3,2.744406454E0,2.985472537E0,4.055221539E0
2.520349083E0,-2.033065188E-1,2.277933716E0,2.714394450E0,3.549401750E0
2.530400083E0,-6.373067451E-1,1.694539468E0,2.296323063E0,2.924162018E0
2.540451083E0,-1.076212785E0,1.078509572E0,1.862208231E0,2.406083197E0
2.550502083E0,-1.305433871E0,2.951522434E-1,1.514415990E0,2.021071060E0
2.560552083E0,-1.453471046E0,-8.113397634E-1,1.054678806E0,1.970583080E0
2.570603083E0,-1.615801155E0,-2.402641377E0,5.930292892E-1,2.955534249E0
2.580654083E0,-1.793052481E0,-4.304271682E0,3.350783475E-1,4.674833624E0
2.590705083E0,-1.851734552E0,-6.209950599E0,3.966553755E-1,6.492283326E0
2.600756083E0,-1.328619543E0,-7.781461142E0,9.365133016E-1,7.949429197E0
2.610806083E0,-3.524798074E-1,-8.934626209E0,1.644023033E0,9.091457487E0
2.620857083E0,2.107628882E-1,-9.725055159E0,1.605569404E0,9.858953898E0
2.630908083E0,3.142735156E-1,-9.477113335E0,3.683911045E-1,9.489476119E0
2.640959083E0,4.930427787E-1,-8.243376560E0,-1.562994512E0,8.404718921E0
2.651010083E0,1.206923783E0,-5.029704153E0,-3.156049851E0,6.059310154E0
2.661060083E0,2.118520783E0,-1.371217094E0,-3.861181959E0,4.612709914E0
2.671111083E0,2.959234326E0,1.346502668E0,-4.303047860E0,5.393176997E0
2.681162083E0,3.498763347E0,3.200399228E0,-4.382479945E0,6.456781756E0
2.691213083E0,3.539836821E0,4.262312647E0,-3.742809756E0,6.686282875E0
2.701264083E0,2.811197737E0,4.202604974E0,-2.472909122E0,5.628498983E0
2.711314083E0,1.544334438E0,3.080117909E0,-1.626652271E0,3.810261513E0
2.721365083E0,4.688803660E-1,1.945821222E0,-1.974483250E0,2.811521497E0
2.731416083E0,-3.909071240E-1,9.441686225E-1,-3.062783253E0,3.228761995E0
2.741467083E0,-1.087529194E0,1.680068779E-1,-4.238460685E0,4.378983334E0
2.751518083E0,-1.742208602E0,-3.240176082E-1,-4.850858291E0,5.164407457E0
2.761568083E0,-2.178800314E0,-1.981878662E-1,-4.986650519E0,5.445469001E0
2.771619083E0,-2.312280845E0,3.181411564E-1,-4.912202600E0,5.438528375E0
2.781670083E0,-2.264531897E0,5.824072373E-1,-4.543311120E0,5.109694594E0
2.791721083E0,-2.018058309E0,4.015154350E-1,-3.718764836E0,4.250057163E0
2.801771083E0,-1.198491221E0,9.280466795E-2,-2.781135739E0,3.029803609E0
2.811822083E0,-1.922114271E-1,1.065479636E-2,-1.926870396E0,1.936462827E0
2.821873083E0,4.412969667E-1,1.179137814E-1,-1.074968498E0,1.167991414E0
2.831924083E0,9.100363782E-1,3.761700940E-1,-1.865261793E-1,1.002228599E0
2.841975083E0,1.325456784E0,6.468996871E-1,7.652824152E-1,1.661617305E0
2.852025083E0,1.653965054E0,1.074429384E0,1.786516317E0,2.661134993E0
2.862076083E0,1.838359339E0,1.721746563E0,2.720272364E0,3.707270966E0
2.872127083E0,1.842159152E0,2.506342331E0,3.409088109E0,4.614887209E0
2.882178083E0,1.525328941E0,3.201002076E0,3.575216861E0,5.035396535E0
2.892229083E0,9.040929759E-1,3.669274002E0,3.386234851E0,5.074203610E0
2.902279083E0,9.807914883E-2,3.744507203E0,2.945476413E0,4.765163692E0
2.912330083E0,-6.708805802E-1,3.596981367E0,2.362546581E0,4.355454288E0
2.922381083E0,-1.426720619E0,3.239957396E0,1.679927423E0,3.918547154E0
2.932432083E0,-2.203814118E0,2.818537454E0,1.038069132E0,3.725390928E0
2.942483083E0,-2.863021024E0,2.544189019E0,7.644407085E-1,3.905657019E0
2.952533083E0,-3.351850884E0,2.389738326E0,8.945000339E-1,4.212586370E0
2.962584083E0,-3.711600242E0,2.239803438E0,1.128157256E0,4.479445791E0
2.972635083E0,-3.856491323E0,2.058982971E0,1.113237574E0,4.511234210E0
2.982686083E0,-3.631872287E0,1.733687747E0,8.214567621E-1,4.107427507E0
2.992736083E0,-2.604484630E0,1.416692644E0,6.710826015E-1,3.039853630E0
3.002787083E0,-1.326776793E0,1.119923061E0,6.392866123E-1,1.850203150E0
3.012838083E0,-5.648661751E-1,8.268939418E-1,5.943343878E-1,1.164500215E0
3.022889083E0,-1.412839329E-1,7.065102965E-1,6.584432602E-1,9.760458368E-1
3.032940083E0,1.960567754E-2,6.593261898E-1,1.005405196E0,1.202470381E0
3.042990083E0,-2.213033349E-1,5.454183358E-1,1.688726166E0,1.788365844E0
3.053041083E0,-6.739395511E-1,3.934456927E-1,2.200052311E0,2.334357343E0
3.063092083E0,-1.138648185E0,2.624218690E-1,2.390897244E0,2.661160378E0
3.073143083E0,-1.644622373E0,-2.023721337E-2,2.171057138E0,2.723725646E0
3.083194083E0,-2.160478064E0,-4.431236368E-1,1.228736236E0,2.524641907E0
3.093244083E0,-2.501385062E0,-1.051345747E0,-4.359075880E-1,2.748139467E0
3.103295083E0,-2.364823048E0,-1.718409557E0,-1.753251361E0,3.408696200E0
3.113346083E0,-1.870565218E0,-2.227672219E0,-2.590807700E0,3.895359071E0
3.123397083E0,-1.073948086E0,-2.319181144E0,-3.014744868E0,3.952297090E0
3.133447083E0,-3.084451573E-1,-1.673968964E0,-2.715881982E0,3.205202871E0
3.143498083E0,1.868849791E-1,-1.014926364E0,-2.241519595E0,2.467673320E0
3.153549083E0,5.757910397E-1,-9.799179143E-1,-2.069930567E0,2.361437484E0
3.163599833E0,8.947845740E-1,-1.404856710E0,-2.031346107E0,2.626904798E0
3.173650833E0,1.167837339E0,-2.153185124E0,-2.103208387E0,3.228550100E0
3.183700833E0,1.398967102E0,-2.867592085E0,-2.212223729E0,3.882541326E0
3.193751833E0,1.753295069E0,-3.306271838E0,-2.356142564E0,4.422316683E0
3.203802833E0,2.194682375E0,-3.455562363E0,-2.592199337E0,4.845311071E0
3.213853833E0,2.624388260E0,-3.383701837E0,-2.842159621E0,5.139525578E0
3.223904833E0,2.984135279E0,-3.055812203E0,-2.956107820E0,5.194383989E0
3.233954833E0,3.204482338E0,-2.626965128E0,-2.910842185E0,5.063857726E0
3.244005833E0,3.232788125E0,-2.310188711E0,-2.701655706E0,4.804876117E0
3.254056833E0,2.793373961E0,-2.225232176E0,-2.047016644E0,4.116415124E0
3.264107833E0,2.145613857E0,-2.112923536E0,-1.234672329E0,3.254615254E0
3.274158833E0,1.592859604E0,-1.708595590E0,-6.932200869E-1,2.436607210E0
3.284208833E0,1.002701298E0,-1.220957685E0,-4.469833839E-1,1.641932309E0
3.294259833E0,4.251900803E-1,-8.137599260E-1,-3.992397717E-1,1.001191399E0
3.304310833E0,-2.644374043E-2,-4.983079040E-1,-4.770778334E-1,6.903718547E-1
3.314361833E0,-3.517681282E-1,-2.191261607E-1,-5.533500107E-1,6.913416845E-1
3.324412833E0,-6.526573672E-1,-3.184218228E-2,-6.014784793E-1,8.881170670E-1
3.334462833E0,-9.106183223E-1,8.925189972E-3,-5.956487688E-1,1.088164897E0
3.344513833E0,-1.174579617E0,-1.777360600E-1,-5.734001863E-1,1.319096341E0
3.354564833E0,-1.420830719E0,-3.951589268E-1,-5.229281902E-1,1.564725024E0
3.364615833E0,-1.559484282E0,-5.136954367E-1,-4.511653125E-1,1.702769616E0
3.374665833E0,-1.592922754E0,-5.048497689E-1,-3.507943475E-1,1.707434585E0
3.384716833E0,-1.504235988E0,-3.431040895E-1,-1.181349158E-1,1.547385595E0
3.394767833E0,-1.192264813E0,-1.363529760E-1,2.753208268E-1,1.231214472E0
3.404818833E0,-7.455351985E-1,1.195989490E-1,5.997477400E-1,9.642738161E-1
3.414869833E0,-6.215568312E-1,4.916596198E-1,8.056317846E-1,1.130090549E0
3.424919833E0,-8.179266518E-1,8.530204707E-1,9.330308461E-1,1.505720589E0
3.434970833E0,-1.031217730E0,1.124275728E0,9.893711078E-1,1.818312709E0
3.445021833E0,-1.129514980E0,1.364596877E0,9.326004910E-1,2.001917181E0
3.455072833E0,-1.183814271E0,1.504956365E0,7.120072639E-1,2.042856880E0
3.465123833E0,-1.178264094E0,1.486873266E0,3.960869165E-1,1.938035920E0
3.475173833E0,-1.155335553E0,1.465281252E0,1.906075358E-1,1.875681375E0
3.485224833E0,-1.063298332E0,1.566532808E0,1.040207970E-1,1.896166846E0
3.495275833E0,-9.026759031E-1,1.906413327E0,2.717902780E-2,2.109496210E0
3.505326833E0,-7.704266493E-1,2.377156872E0,-2.112774249E-1,2.507801860E0
3.515376833E0,-7.324053488E-1,2.820195140E0,-6.350964975E-1,2.982157907E0
3.525427833E0,-7.832659654E-1,3.100854474E0,-1.052231015E0,3.366896813E0
3.535478833E0,-9.478580694E-1,3.189794717E0,-1.290633692E0,3.569168052E0
3.545529833E0,-1.194862146E0,3.129381870E0,-1.429224397E0,3.641896321E0
3.555580833E0,-1.515033895E0,2.801478787E0,-1.592745291E0,3.560961760E0
3.565630833E0,-1.852778280E0,2.300676461E0,-1.902605621E0,3.513660154E0
3.575681833E0,-2.174228961E0,1.914432784E0,-2.464199109E0,3.803235689E0
3.585732833E0,-2.501070482E0,1.835838019E0,-3.104140610E0,4.388774739E0
3.595783833E0,-2.863863900E0,1.882657844E0,-3.525181067E0,4.916606406E0
3.605833833E0,-3.280919773E0,1.628860034E0,-4.049706717E0,5.460562613E0
3.615884833E0,-3.737144389E0,1.036889675E0,-4.971983364E0,6.305712247E0
3.625935833E0,-4.002282289E0,3.265091068E-1,-6.078954842E0,7.285503668E0
3.635986833E0,-3.606348022E0,-9.621067107E-2,-7.173255404E0,8.029358358E0
3.646037833E0,-2.929540996E0,-1.410120374E-1,-8.018273960E0,8.537845873E0
3.656087833E0,-2.595507984E0,2.430710936E-1,-8.093004885E0,8.502498063E0
3.666138833E0,-2.752279730E0,7.868598104E-1,-6.816464152E0,7.393130299E0
3.676189833E0,-3.026278209E0,1.181476116E0,-5.305496850E0,6.221136748E0
3.686240833E0,-2.794262738E0,1.686627016E0,-4.162136979E0,5.289234271E0
3.696291833E0,-2.469487039E0,1.895887170E0,-3.050783597E0,4.358902953E0
3.706341833E0,-2.674329329E0,1.472102614E0,-2.067459680E0,3.686938159E0
3.716392833E0,-2.931985424E0,7.567179984E-1,-1.437246923E0,3.351841192E0
3.726443833E0,-3.092797303E0,-1.573368788E-2,-1.198328303E0,3.316871030E0
3.736494833E0,-3.246321505E0,-5.873118818E-1,-1.186051343E0,3.505746190E0
3.746545833E0,-3.363815749E0,-8.143078101E-1,-1.254604464E0,3.681356539E0
3.756595833E0,-3.472021106E0,-7.426653850E-1,-1.325244677E0,3.789822672E0
3.766646833E0,-3.567906087E0,-5.764723134E-1,-1.249216694E0,3.823979148E0
3.776697833E0,-3.591742846E0,-2.875841922E-1,-9.201694568E-1,3.718875256E0
3.786748833E0,-3.546708176E0,4.553285301E-2,-4.913215046E-1,3.580867067E0
3.796799833E0,-3.484161387E0,3.199894613E-1,-1.729033363E-1,3.503094260E0
3.806849833E0,-3.454525360E0,5.315551722E-1,-7.918986484E-2,3.496078860E0
3.816900833E0,-3.480955067E0,6.364764404E-1,-2.153169921E-1,3.545209704E0
3.826951833E0,-3.642182975E0,6.462091309E-1,-5.662709686E-1,3.742157917E0
3.837002833E0,-3.850119027E0,5.401184195E-1,-1.099216901E0,4.040225516E0
3.847052833E0,-3.833099536E0,3.805946821E-1,-1.778485605E0,4.242701429E0
3.857103833E0,-3.550204226E0,3.553569299E-1,-2.473745566E0,4.341617869E0
3.867154833E0,-3.268377203E0,4.002840114E-1,-3.124965468E0,4.539595357E0
3.877205833E0,-2.988914793E0,4.233805132E-1,-3.650901174E0,4.737292695E0
3.887256833E0,-2.629130059E0,4.275770599E-1,-3.955522983E0,4.768784864E0
3.897306833E0,-2.144697013E0,3.285673267E-1,-3.990076811E0,4.541849263E0
3.907357833E0,-1.607663585E0,1.510353345E-1,-3.639247673E0,3.981396426E0
3.917408833E0,-1.085524184E0,-4.637192845E-2,-3.123526468E0,3.307103069E0
3.927459833E0,-5.984077044E-1,-2.095419896E-1,-2.538463133E0,2.616446962E0
3.937509833E0,-1.587098781E-1,-2.861931396E-1,-1.965536279E0,1.992593336E0
3.947560833E0,1.922989891E-1,-2.881987345E-1,-1.425420491E0,1.466922284E0
3.957611833E0,4.347649690E-1,-2.463092816E-1,-9.279218414E-1,1.053910710E0
3.967662833E0,5.811116405E-1,-2.221222740E-1,-4.841360074E-1,7.882998903E-1
3.977713833E0,6.067141858E-1,-2.627820575E-1,-9.593848318E-2,6.681023167E-1
3.987763833E0,5.381730509E-1,-3.636418498E-1,1.835651493E-1,6.749531774E-1
3.997814833E0,3.452356920E-1,-4.708084488E-1,3.818629432E-1,6.976156433E-1
4.007865833E0,3.475672692E-2,-5.905208337E-1,5.430437815E-1,8.030064967E-1
4.017916833E0,-3.028546344E-1,-6.574363697E-1,6.658806261E-1,9.835347060E-1
4.027967833E0,-6.617695950E-1,-6.763269693E-1,8.265855011E-1,1.256423797E0
4.038017833E0,-1.062125527E0,-6.307987940E-1,9.780155227E-1,1.575605317E0
4.048068833E0,-1.474433022E0,-5.190064627E-1,1.117474832E0,1.921476111E0
4.058119833E0,-1.933103820E0,-4.139033461E-1,1.295771055E0,2.363732004E0
4.068170833E0,-2.291409940E0,-2.859557426E-1,1.416889988E0,2.709226354E0
4.078220833E0,-2.485850179E0,-1.194457519E-1,1.367840327E0,2.839842524E0
4.088271833E0,-2.569778189E0,4.893534780E-3,1.249829189E0,2.857596348E0
4.098322833E0,-2.470069129E0,8.162186801E-2,1.056144556E0,2.687628128E0
4.108373833E0,-2.224612664E0,8.432269692E-2,7.590387583E-1,2.352052648E0
4.118424833E0,-2.144470434E0,5.395810604E-3,5.535468426E-1,2.214767857E0
4.128474833E0,-2.175554232E0,-1.126314068E-1,4.755049324E-1,2.229759402E0
4.138525833E0,-2.203375576E0,-1.886528116E-1,4.620683232E-1,2.259194757E0
4.148576833E0,-2.220897635E0,-2.226906234E-1,4.662686706E-1,2.280215756E0
4.158627833E0,-2.261824344E0,-3.310523933E-1,6.379452610E-1,2.373271836E0
4.168678583E0,-2.283330257E0,-3.961915451E-1,8.825749299E-1,2.479819209E0
4.178728583E0,-2.320184234E0,-4.145629120E-1,1.258699708E0,2.671973473E0
4.188779583E0,-2.376845946E0,-4.351568055E-1,1.645098629E0,2.923201600E0
4.198830583E0,-2.419603565E0,-3.996700537E-1,1.859842886E0,3.077861778E0
4.208881583E0,-2.439421825E0,-3.767150545E-1,1.800701808E0,3.055359238E0
4.218931583E0,-2.233320630E0,-4.922402483E-1,1.451337689E0,2.708579440E0
4.228982583E0,-1.891723075E0,-7.436342686E-1,1.079833674E0,2.301662200E0
4.239033583E0,-1.422035538E0,-9.416525656E-1,7.363451296E-1,1.857713319E0
4.249084583E0,-7.643186478E-1,-9.894208091E-1,2.566977373E-1,1.276334698E0
4.259135583E0,-1.517864093E-2,-9.179508770E-1,-2.483245245E-1,9.510674388E-1
4.269185583E0,6.261895801E-1,-7.861417723E-1,-5.876121363E-1,1.164225193E0
4.279236583E0,1.123757373E0,-6.099967396E-1,-7.454814041E-1,1.480090936E0
4.289287583E0,1.525933689E0,-4.426026499E-1,-8.469507685E-1,1.800471142E0
4.299338583E0,1.941406136E0,-2.481131476E-1,-9.019765761E-1,2.155035884E0
4.309389583E0,2.312648343E0,-9.109143376E-2,-8.273517787E-1,2.457875296E0
4.319439583E0,2.593159450E0,-1.537700772E-2,-5.750716129E-1,2.656204011E0
4.329490583E0,2.740559278E0,-6.559581935E-2,-1.805585110E-1,2.747283994E0
4.339541583E0,2.830835903E0,-1.295608503E-1,1.724089542E-1,2.839039057E0
4.349592583E0,2.803539638E0,-3.205063552E-1,4.338177931E-1,2.854953013E0
4.359642583E0,2.676612082E0,-5.542745286E-1,5.428704116E-1,2.786786819E0
4.369693583E0,2.484959648E0,-8.558967161E-1,4.999682209E-1,2.675360137E0
4.379744583E0,2.274313412E0,-1.027153476E0,4.360897288E-1,2.533321932E0
4.389795583E0,1.852751968E0,-9.503269100E-1,4.135668388E-1,2.122933965E0
4.399846583E0,1.194273551E0,-7.261762369E-1,4.230980927E-1,1.460353806E0
4.409896583E0,8.503968982E-1,-4.139086086E-1,4.083511224E-1,1.030167879E0
4.419947583E0,7.309075845E-1,-1.526310396E-1,4.537722936E-1,8.737456299E-1
4.429998583E0,6.121719769E-1,-3.022308826E-2,5.764305058E-1,8.413917592E-1
4.440049583E0,4.693314421E-1,1.284949028E-1,7.436523950E-1,8.887079538E-1
4.450100583E0,3.746490140E-1,3.322960961E-1,8.389798442E-1,9.770720332E-1
4.460150583E0,2.665934920E-1,5.181931150E-1,9.028551203E-1,1.074589951E0
4.470201583E0,1.429975326E-1,7.048730761E-1,1.002327661E0,1.233675438E0
4.480252583E0,2.819797821E-2,8.549313408E-1,1.096617521E0,1.390781331E0
4.490303583E0,-8.093891323E-2,9.329443073E-1,1.249306741E0,1.561314677E0
4.500353583E0,-2.604251911E-1,8.727290958E-1,1.439706700E0,1.703594065E0
4.510404583E0,-4.735037228E-1,7.538885307E-1,1.648589709E0,1.873606608E0
4.520455583E0,-7.170247597E-1,6.237037826E-1,1.852210808E0,2.081781879E0
4.530506583E0,-9.881697974E-1,4.407701325E-1,1.892140274E0,2.179668019E0
4.540557583E0,-1.218412611E0,3.634716958E-1,1.883492534E0,2.272484344E0
4.550607583E0,-1.335092411E0,5.324457031E-1,1.896005576E0,2.379245115E0
4.560658583E0,-1.404895010E0,8.347104996E-1,1.888593353E0,2.497449991E0
4.570709583E0,-1.405397578E0,1.261985258E0,1.860165652E0,2.651031007E0
4.580760583E0,-1.334020032E0,1.660289403E0,1.797834187E0,2.787181033E0
4.590811583E0,-1.248421180E0,1.850218077E0,1.713611916E0,2.813952411E0
4.600861583E0,-1.136852212E0,1.856316723E0,1.639252875E0,2.724976094E0
4.610912583E0,-9.747305569E-1,1.707637231E0,1.657231894E0,2.571486364E0
4.620963583E0,-7.919868683E-1,1.296362793E0,1.773637386E0,2.335292116E0
4.631014583E0,-6.102423227E-1,6.056499195E-1,1.854739144E0,2.044325025E0
4.641064583E0,-4.115648253E-1,-1.638389826E-1,1.823517059E0,1.876550900E0
4.651115583E0,-2.194286811E-1,-9.876479334E-1,1.769070564E0,2.037942111E0
4.661166583E0,-7.980952352E-2,-1.805051844E0,1.675222607E0,2.463930296E0
4.671217583E0,-3.894157916E-2,-2.655864991E0,1.533525860E0,3.067056710E0
4.681268583E0,-1.329436838E-1,-3.581168742E0,1.122634123E0,3.755362959E0
4.691318583E0,-2.488162753E-1,-4.206434900E0,6.862771761E-1,4.269306790E0
4.701369583E0,-3.537281514E-1,-4.257069449E0,5.252286310E-1,4.303908574E0
4.711420583E0,-3.891839130E-1,-3.792708725E0,7.366746202E-1,3.883142166E0
4.721471583E0,-2.669470110E-1,-2.990583588E0,1.246766856E0,3.251042679E0
4.731522583E0,1.239913774E-1,-2.008275332E0,1.878273017E0,2.752535776E0
4.741572583E0,6.672743100E-1,-1.307332755E0,2.477025561E0,2.879241144E0
4.751623583E0,1.132153390E0,-1.273471529E0,2.824951265E0,3.299068154E0
4.761674583E0,1.395161442E0,-1.635979019E0,2.785867306E0,3.519085030E0
4.771725583E0,1.406153915E0,-2.135263408E0,2.348322644E0,3.471489290E0
4.781775583E0,1.280238219E0,-2.808204255E0,1.645534100E0,3.497542495E0
4.791826583E0,1.002003433E0,-3.387072757E0,8.831719306E-1,3.640915462E0
4.801877583E0,6.958423439E-1,-3.544419576E0,2.461465828E-1,3.620455060E0
4.811928583E0,4.186785113E-1,-2.827074974E0,-9.477152511E-2,2.859480065E0
4.821979583E0,1.513084360E-1,-1.596392199E0,-4.598623149E-1,1.668183337E0
4.832029583E0,-6.611826807E-2,-2.875637269E-1,-7.763956332E-1,8.305749224E-1
4.842080583E0,-2.731421542E-1,7.179328322E-1,-1.401023276E0,1.597779837E0
4.852131583E0,-5.324448261E-1,1.351456429E0,-2.543260481E0,2.928840359E0
4.862182583E0,-9.056318899E-1,1.715661365E0,-3.854181088E0,4.314901493E0
4.872232583E0,-1.268224530E0,1.758879306E0,-4.943267688E0,5.397957512E0
4.882283583E0,-1.387394001E0,1.728396016E0,-5.578174735E0,6.002353562E0
4.892334583E0,-1.167665650E0,1.882626269E0,-5.593384513E0,6.016117938E0
4.902385583E0,-9.862051329E-1,2.060069969E0,-5.342422017E0,5.810160226E0
4.912436583E0,-8.939506879E-1,2.455811863E0,-5.111308479E0,5.740699793E0
4.922486583E0,-6.896342088E-1,3.105585456E0,-4.700480184E0,5.675805699E0
4.932537583E0,-4.356876962E-1,3.761735439E0,-4.126368392E0,5.600660084E0
4.942588583E0,9.646005481E-2,4.162422323E0,-3.545370333E0,5.468520361E0
4.952639583E0,6.933365196E-1,4.297164391E0,-2.797876318E0,5.174403272E0
4.962690583E0,8.494276491E-1,4.198307855E0,-1.806232836E0,4.648633480E0
4.972740583E0,8.205310748E-1,3.790390304E0,-6.641333319E-1,3.934641404E0
4.982791583E0,6.994243482E-1,3.276185575E0,4.526165915E-1,3.380450875E0
4.992842583E0,5.645153421E-1,2.915408860E0,1.390021155E0,3.278787155E0
5.002893583E0,4.233168151E-1,2.629606900E0,2.169436436E0,3.435183259E0
5.012943583E0,2.832627343E-1,2.265145270E0,2.696148506E0,3.532752134E0
5.022994583E0,1.735184634E-1,1.964972023E0,3.109944556E0,3.682794978E0
5.033045583E0,2.293926289E-1,1.637614485E0,3.595761345E0,3.957764752E0
5.043096583E0,3.568114248E-1,1.321066110E0,3.844001670E0,4.080303775E0
5.053147583E0,4.799724975E-1,1.065324100E0,3.783263133E0,3.959592020E0
5.063197583E0,6.600032242E-1,9.165650868E-1,3.730847230E0,3.898065785E0
5.073248583E0,7.571446259E-1,7.417982429E-1,3.797189154E0,3.942356920E0
5.083299583E0,7.784279061E-1,5.045585775E-1,3.847430770E0,3.957682768E0
5.093350583E0,5.806727339E-1,4.425845236E-1,3.713428959E0,3.784523288E0
5.103401583E0,1.865305647E-1,5.754993367E-1,3.076721846E0,3.135635574E0
5.113451583E0,-2.530387690E-1,6.151838046E-1,2.218403505E0,2.315986581E0
5.123502583E0,-5.896960840E-1,4.694168115E-1,1.679795129E0,1.841142387E0
5.133553583E0,-9.527794515E-1,1.869401622E-1,1.562127516E0,1.839287276E0
5.143604583E0,-1.365300004E0,-3.504745048E-1,1.481104695E0,2.044638745E0
5.153655583E0,-1.652661564E0,-8.461318660E-1,1.299697461E0,2.266372182E0
5.163705500E0,-1.702873212E0,-1.348259756E0,9.589959919E-1,2.374290391E0
5.173756500E0,-1.595668606E0,-1.932679605E0,6.578117609E-1,2.591162880E0
5.183807500E0,-1.505669725E0,-2.511914143E0,3.921215907E-1,2.954744206E0
5.193858500E0,-1.446621325E0,-3.162356658E0,2.157555333E-1,3.484216317E0
5.203908500E0,-1.499269655E0,-3.868287495E0,2.077960110E-1,4.153870102E0
5.213959500E0,-1.728257437E0,-4.530462449E0,4.756823954E-1,4.872190217E0
5.224010500E0,-2.128928096E0,-5.055892078E0,1.114788621E0,5.597957950E0
5.234061500E0,-2.614759065E0,-5.214101361E0,2.036751565E0,6.178363449E0
5.244112500E0,-3.120681213E0,-4.994589869E0,2.936200098E0,6.580718061E0
5.254162500E0,-3.585420252E0,-4.712148303E0,3.342801441E0,6.799551565E0
5.264213500E0,-4.060446005E0,-4.604531468E0,2.981660153E0,6.824897733E0
5.274264500E0,-4.127989240E0,-4.260775999E0,1.995563486E0,6.259135795E0
5.284315500E0,-3.643362359E0,-3.454818013E0,8.865817344E-1,5.098615886E0
5.294366500E0,-2.761607208E0,-2.347553589E0,-1.331248744E-1,3.627010402E0
5.304416500E0,-1.784676344E0,-1.185646935E0,-9.022206974E-1,2.324829132E0
5.314467500E0,-1.022031316E0,-1.254917729E-1,-1.330823944E0,1.682673041E0
5.324518500E0,-4.003760319E-1,5.202536738E-1,-1.514647394E0,1.650794227E0
5.334569500E0,1.019392613E-1,7.617243844E-1,-1.481729908E0,1.669173200E0
5.344619500E0,6.241777725E-1,6.178285003E-1,-1.567582237E0,1.796837226E0
5.354670500E0,1.208388583E0,2.126299042E-1,-1.831072977E0,2.204142167E0
5.364721500E0,1.713084497E0,-9.592941999E-2,-2.217979875E0,2.804156856E0
5.374772500E0,2.081171401E0,-1.449489677E-1,-2.648468263E0,3.371449057E0
5.384823500E0,2.379765900E0,-7.186228037E-2,-3.187068161E0,3.978172116E0
5.394873500E0,2.657073026E0,-1.166806036E-1,-3.708907599E0,4.563950811E0
5.404924500E0,2.918443858E0,-2.344546366E-1,-3.836331292E0,4.825942531E0
5.414975500E0,3.202967910E0,-1.950444031E-1,-3.556007880E0,4.789805611E0
5.425026500E0,3.401787860E0,6.448309422E-2,-2.923247638E0,4.485721287E0
5.435076500E0,3.439968716E0,4.476558137E-1,-2.109274288E0,4.059903757E0
5.445127500E0,3.346774039E0,8.734775394E-1,-1.255523354E0,3.679700854E0
5.455178500E0,3.077532855E0,1.339204758E0,-4.144012365E-1,3.381775605E0
5.465229500E0,2.739697691E0,1.755046456E0,2.578987554E-1,3.263838732E0
5.475280500E0,2.294612167E0,2.009006819E0,8.045024680E-1,3.154136588E0
5.485330500E0,1.815793472E0,2.106258879E0,1.152060235E0,3.010095544E0
5.495381500E0,1.388075202E0,2.233024760E0,1.282358420E0,2.925336812E0
5.505432500E0,1.036899250E0,2.313133954E0,1.317667416E0,2.856920748E0
5.515483500E0,7.528725039E-1,2.437761508E0,1.318362065E0,2.871859452E0
5.525534500E0,5.595911825E-1,2.708479992E0,1.434186490E0,3.115428870E0
5.535584500E0,3.512915436E-1,3.024056559E0,1.666534229E0,3.470685834E0
5.545635500E0,1.644596645E-1,3.417344962E0,1.917024854E0,3.921769736E0
5.555686500E0,9.635772854E-3,3.819276134E0,2.107692470E0,4.362262095E0
5.565737500E0,-1.059111653E-1,4.233243214E0,2.237812607E0,4.789506295E0
5.575787500E0,-1.763087547E-1,4.506636214E0,2.272364827E0,5.050197685E0
5.585838500E0,-2.093856496E-1,4.459066776E0,2.359334997E0,5.049116803E0
5.595889500E0,-1.999510210E-1,4.112255552E0,2.670265514E0,4.907233849E0
5.605940500E0,-1.431657862E-1,3.488960490E0,3.146991345E0,4.700733588E0
5.615991500E0,-1.082886432E-1,2.723079320E0,3.604818975E0,4.519027246E0
5.626041500E0,-1.682203013E-1,1.896390030E0,3.813860443E0,4.262642923E0
5.636092500E0,-3.323866548E-1,8.952823913E-1,3.656378553E0,3.779036328E0
5.646143500E0,-4.715747264E-1,-2.470097780E-1,3.221673152E0,3.265359774E0
5.656194500E0,-4.805674517E-1,-1.618426847E0,2.620640194E0,3.117371579E0
5.666245500E0,-4.423058306E-1,-3.143433899E0,1.941272234E0,3.720933890E0
5.676295500E0,-5.107338951E-1,-4.864000493E0,1.402997150E0,5.088000679E0
5.686346500E0,-7.302989624E-1,-6.846223556E0,8.765610686E-1,6.940639226E0
5.696397500E0,-1.122886284E0,-8.790743773E0,1.871918848E-1,8.864146349E0
5.706448500E0,-1.726300374E0,-9.861413398E0,1.424804194E-1,1.001238672E1
5.716498500E0,-1.658415078E0,-8.315300236E0,1.446605976E0,8.601582845E0
5.726549500E0,-9.162548921E-1,-5.261449775E0,3.258012428E0,6.255958898E0
5.736600500E0,1.126202971E-2,-2.092540727E0,4.183218530E0,4.677410694E0
5.746651500E0,6.994830396E-1,-5.693784714E-2,3.735707728E0,3.801056520E0
5.756702500E0,1.021214240E0,6.457776064E-1,2.349511967E0,2.641990486E0
5.766752500E0,9.845856003E-1,4.080678248E-1,8.873830953E-1,1.386858649E0
5.776803500E0,9.547235046E-1,-4.890687186E-1,-1.409680371E-1,1.081922903E0
5.786854500E0,9.523006377E-1,-1.992314773E0,-8.834558129E-1,2.378379455E0
5.796905500E0,6.721994928E-1,-3.501218593E0,-1.705944901E0,3.952294498E0
5.806956500E0,1.807081997E-1,-3.856153353E0,-2.971926877E0,4.871850111E0
5.817006500E0,-2.523862197E-1,-3.238661653E0,-4.536314927E0,5.579496502E0
5.827057500E0,-2.702056825E-1,-2.041632528E0,-6.487058920E0,6.806115479E0
5.837108500E0,3.888407911E-1,-6.954368395E-1,-8.161417308E0,8.200217194E0
5.847159500E0,1.653452838E0,7.141619629E-1,-9.267488315E0,9.440883077E0
5.857209500E0,2.569341110E0,1.699946389E0,-8.915483594E0,9.432771553E0
5.867260500E0,2.611477315E0,2.105212812E0,-7.330165436E0,8.061207110E0
5.877311500E0,2.206846776E0,2.545847874E0,-6.559104803E0,7.373830070E0
5.887362500E0,1.387688408E0,2.621088091E0,-5.469835185E0,6.222128161E0
5.897413500E0,3.220492892E-1,2.175590485E0,-3.763555092E0,4.359043087E0
5.907463500E0,-1.162816773E-1,2.288848713E0,-2.306963679E0,3.251835063E0
5.917514500E0,-1.699524658E-1,2.840730561E0,-1.480772135E0,3.208008740E0
5.927565500E0,-1.339143216E-1,3.562052439E0,-8.795041184E-1,3.671468115E0
5.937616500E0,-1.431862514E-1,4.126248524E0,-4.269319658E-1,4.150746931E0
5.947667500E0,-3.226557186E-1,4.242155541E0,1.250744279E-1,4.256246463E0
5.957717500E0,-7.123044486E-1,4.012076960E0,1.046770739E0,4.207121123E0
5.967768500E0,-9.203879233E-1,3.623506091E0,1.536691689E0,4.042070221E0
5.977819500E0,-1.106691251E0,3.197883756E0,1.962494119E0,3.911854957E0
5.987870500E0,-1.265768553E0,2.676414446E0,2.545756073E0,3.904643172E0
5.997920500E0,-1.237236041E0,2.189877571E0,3.030125384E0,3.938016842E0
6.007971500E0,-1.102717629E0,1.815896675E0,3.373038855E0,3.986333907E0
6.018022500E0,-8.452164844E-1,2.017381786E0,3.660944059E0,4.264590435E0
6.028073500E0,-3.355844240E-1,2.518143182E0,3.966339455E0,4.710149749E0
6.038124500E0,3.381570527E-1,2.877127140E0,4.198444680E0,5.100896833E0
6.048174500E0,8.662459955E-1,2.919494895E0,4.256094718E0,5.233371267E0
6.058225500E0,1.011000836E0,2.701255757E0,3.915639417E0,4.863243506E0
6.068276500E0,7.854572095E-1,2.292510824E0,3.356750851E0,4.140087581E0
6.078327500E0,3.888886651E-1,1.831661938E0,2.823985597E0,3.388379333E0
6.088378500E0,-1.046138509E-1,1.319319547E0,2.127081545E0,2.505199398E0
6.098428500E0,-5.280032080E-1,6.612762362E-1,1.272158975E0,1.527894665E0
6.108479500E0,-9.124185339E-1,-1.510920525E-1,7.443131304E-1,1.187155603E0
6.118530500E0,-1.150293134E0,-9.233063418E-1,7.974422474E-1,1.676777574E0
6.128581500E0,-1.227775100E0,-1.708478061E0,7.637331954E-1,2.238217455E0
6.138631500E0,-1.109955313E0,-2.310481657E0,1.972031951E-1,2.570839431E0
6.148682500E0,-9.284515992E-1,-2.514741856E0,-1.441525769E-1,2.684535145E0
6.158733500E0,-1.190069768E0,-2.799890099E0,3.522538126E-1,3.062635036E0
6.168785083E0,-1.744875370E0,-3.402786564E0,9.196690813E-1,3.933107891E0
6.178836083E0,-2.420373935E0,-4.146072924E0,1.262251453E0,4.964011423E0
6.188886083E0,-3.093208070E0,-4.793832736E0,1.557649279E0,5.913969880E0
6.198937083E0,-3.588070795E0,-4.933122184E0,2.060924832E0,6.438738826E0
6.208988083E0,-3.796752074E0,-4.672252166E0,3.116551909E0,6.779244974E0
6.219039083E0,-3.561967362E0,-4.494008567E0,4.090505371E0,7.043859644E0
6.229090083E0,-3.052590095E0,-4.296076224E0,3.194511959E0,6.162749700E0
6.239140083E0,-2.234660373E0,-3.521772725E0,7.176546510E-1,4.232211987E0
6.249191083E0,-1.195374216E0,-2.295788189E0,-9.746430679E-1,2.765771508E0
6.259242083E0,-4.312428255E-1,-1.087551121E0,-1.671470887E0,2.040233502E0
6.269293083E0,1.215036795E-2,-2.150483125E-1,-1.893655872E0,1.905866200E0
6.279343083E0,3.889148314E-1,3.186668211E-1,-1.960824154E0,2.024261508E0
6.289394083E0,6.909859389E-1,3.554428840E-1,-1.941196074E0,2.090943187E0
6.299445083E0,9.110849302E-1,-1.764169282E-1,-1.848613747E0,2.068470804E0
6.309496083E0,1.123077926E0,-1.071076591E0,-1.981153607E0,2.516640361E0
6.319547083E0,1.417510816E0,-1.965638021E0,-2.675328033E0,3.609771437E0
6.329597083E0,1.817041414E0,-2.482358807E0,-3.725387392E0,4.831382407E0
6.339648083E0,2.254804469E0,-2.609377288E0,-4.631474268E0,5.774387147E0
6.349699083E0,2.797016777E0,-2.340808241E0,-5.176099137E0,6.332036667E0
6.359750083E0,3.383975487E0,-1.604119880E0,-4.989426777E0,6.238499038E0
6.369801083E0,3.731688936E0,-7.581569982E-1,-4.011951245E0,5.531370277E0
6.379851083E0,3.823863274E0,5.898729622E-2,-2.718966973E0,4.692354552E0
6.389902083E0,3.659800928E0,1.074039375E0,-1.539454937E0,4.113104049E0
6.399953083E0,3.248262781E0,1.926809000E0,-6.590746133E-1,3.833820987E0
6.410004083E0,2.675894043E0,2.463713205E0,2.688081980E-2,3.637446119E0
6.420055083E0,2.154387165E0,2.918468124E0,5.387754603E-1,3.667304084E0
6.430105083E0,1.710218631E0,3.281670263E0,9.795268817E-1,3.828012590E0
6.440156083E0,1.257997896E0,3.423432498E0,1.335541331E0,3.884085403E0
6.450207083E0,8.807548378E-1,3.577368636E0,1.462704238E0,3.963937327E0
6.460258083E0,6.709910926E-1,3.719181742E0,1.410398994E0,4.033827859E0
6.470308083E0,5.942029716E-1,3.737848393E0,1.346178878E0,4.017061781E0
6.480359083E0,5.766518229E-1,3.757475742E0,1.450983348E0,4.068968414E0
6.490410083E0,6.949007960E-1,3.848482391E0,1.784520077E0,4.298629519E0
6.500461083E0,8.718751100E-1,4.006371832E0,2.213324322E0,4.659397602E0
6.510512083E0,1.057538825E0,4.240539955E0,2.651162660E0,5.111675941E0
6.520562083E0,1.207813437E0,4.347260996E0,2.981062860E0,5.407793195E0
6.530613083E0,1.229605425E0,4.274581860E0,3.160456313E0,5.456414911E0
6.540664083E0,1.037422210E0,4.001456078E0,3.214589835E0,5.236552625E0
6.550715083E0,7.095694135E-1,3.445081229E0,3.232065994E0,4.776852940E0
6.560766083E0,3.352651660E-1,2.770909544E0,3.250929111E0,4.284726656E0
6.570816083E0,-4.731069893E-2,2.000804930E0,3.208067851E0,3.781158289E0
6.580867083E0,-3.636009192E-1,1.036751681E0,2.999454399E0,3.194336609E0
6.590918083E0,-5.861215349E-1,-3.543775213E-1,2.643658344E0,2.730943302E0
6.600969083E0,-7.559151757E-1,-2.207741400E0,2.138517383E0,3.165246664E0
6.611019083E0,-9.929066268E-1,-4.468139316E0,1.594030509E0,4.846758275E0
6.621070083E0,-1.399263995E0,-6.959235617E0,1.342557259E0,7.224358801E0
6.631121083E0,-2.013918919E0,-9.293027784E0,1.157827198E0,9.578976909E0
6.641172083E0,-3.014075947E0,-1.097886309E1,7.286392303E-1,1.140837428E1
6.651223083E0,-3.252879158E0,-9.266610648E0,1.121076424E0,9.884741173E0
6.661273083E0,-2.355074716E0,-5.317809917E0,2.464387389E0,6.316540543E0
6.671324083E0,-1.255335220E0,-1.666690350E0,3.655741206E0,4.209295310E0
6.681375083E0,-3.620607626E-1,5.104630959E-1,3.634757888E0,3.688241515E0
6.691426083E0,2.986833769E-1,7.684498519E-1,2.327902851E0,2.469586730E0
6.701477083E0,6.387874062E-1,4.556384325E-2,8.528446157E-1,1.066522083E0
6.711527083E0,7.812247024E-1,-1.390041035E0,-2.867730372E-1,1.620112617E0
6.721578083E0,7.035695855E-1,-3.234997787E0,-9.798576149E-1,3.452584799E0
6.731629083E0,4.845235316E-1,-4.143355722E0,-1.636015710E0,4.480927036E0
6.741680083E0,2.596779169E-1,-4.423978220E0,-3.026711780E0,5.366563156E0
6.751730083E0,1.523394097E-1,-4.302556109E0,-5.117076173E0,6.687276346E0
6.761781083E0,5.596978211E-1,-3.280038305E0,-7.419172922E0,8.131177023E0
6.771832083E0,1.279735943E0,-1.610317928E0,-9.464871604E0,9.685795910E0
6.781883083E0,1.983190631E0,1.465534437E-1,-1.057151681E1,1.075692756E1
6.791934083E0,2.325547885E0,1.107318218E0,-9.935067265E0,1.026352221E1
6.801984083E0,2.054311046E0,1.952993417E0,-8.959397353E0,9.397083488E0
6.812035083E0,1.176022125E0,2.551759994E0,-7.682567768E0,8.180241721E0
6.822086083E0,-1.183419438E-1,2.293444625E0,-5.475000615E0,5.937131024E0
6.832137083E0,-6.958116460E-1,2.280405918E0,-3.265708534E0,4.043421475E0
6.842188083E0,-5.357977657E-1,2.869401798E0,-1.430626559E0,3.250728884E0
6.852238083E0,-2.288929112E-1,3.732102334E0,-3.702842136E-1,3.757404716E0
6.862289083E0,-2.836045772E-2,4.472044086E0,-6.032784350E-2,4.472540897E0
6.872340083E0,2.101094618E-2,4.843596050E0,1.210690852E-1,4.845154474E0
6.882391083E0,-2.294584832E-1,4.851759932E0,7.950821650E-1,4.921827027E0
6.892442083E0,-4.693557081E-1,4.598049245E0,1.044739562E0,4.738547498E0
6.902492083E0,-6.246622874E-1,4.332672778E0,9.488582356E-1,4.479128076E0
6.912543083E0,-8.644564551E-1,3.804510745E0,8.583760817E-1,3.994796174E0
6.922594083E0,-1.059322226E0,3.076607825E0,7.287563208E-1,3.334481228E0
6.932645083E0,-7.670462278E-1,2.649787980E0,9.387951775E-1,2.913944515E0
6.942695083E0,4.793985933E-2,2.576348705E0,1.414717455E0,2.939608198E0
6.952746083E0,6.610648593E-1,2.736626734E0,1.917237547E0,3.406160953E0
6.962797083E0,9.752253775E-1,3.271744030E0,2.567818787E0,4.271892655E0
6.972848083E0,1.191761806E0,3.678640072E0,3.131752331E0,4.975998558E0
6.982899083E0,1.300887954E0,3.678735967E0,3.254397680E0,5.080995182E0
6.992949083E0,1.214595330E0,3.325747159E0,3.148718612E0,4.738171048E0
7.003000083E0,8.097902513E-1,2.878444517E0,3.026030287E0,4.254181753E0
7.013051083E0,1.481874481E-1,2.409933439E0,2.784976483E0,3.685896460E0
7.023102083E0,-5.492793985E-1,1.875518394E0,2.351332790E0,3.057456949E0
7.033153083E0,-1.165997951E0,1.133489186E0,1.938590848E0,2.530312912E0
7.043203083E0,-1.553277755E0,1.383223182E-1,1.754038688E0,2.347010134E0
7.053254083E0,-1.649496320E0,-1.023204852E0,1.798750154E0,2.646372686E0
7.063305083E0,-1.492177567E0,-2.292620167E0,1.927714734E0,3.346458609E0
7.073356083E0,-1.212866308E0,-3.340631247E0,1.780392966E0,3.975004518E0
7.083407083E0,-9.934590425E-1,-3.792480683E0,1.267645802E0,4.120290825E0
7.093457083E0,-1.367119804E0,-4.017894940E0,5.910834821E-1,4.285075961E0
7.103508083E0,-2.170434410E0,-4.218512324E0,2.442031145E-1,4.750396501E0
7.113559083E0,-2.929199519E0,-4.526099841E0,6.272540657E-1,5.427636433E0
7.123610083E0,-3.760879114E0,-4.887063081E0,1.289423318E0,6.300016648E0
7.133660083E0,-4.570667903E0,-5.055651172E0,1.767098737E0,7.040827494E0
7.143711083E0,-5.210864927E0,-4.902175795E0,2.300037360E0,7.514959259E0
7.153762083E0,-5.741421980E0,-4.582908465E0,2.586100692E0,7.788125136E0
7.163812583E0,-5.838044295E0,-4.274732718E0,2.055015635E0,7.521914002E0
7.173863583E0,-4.721942974E0,-3.366905710E0,6.331669164E-1,5.833840918E0
7.183913583E0,-2.838201933E0,-1.901492311E0,-8.420996261E-1,3.518550127E0
7.193964583E0,-1.609201549E0,-6.955970532E-1,-1.668775321E0,2.420371037E0
7.204015583E0,-8.960746890E-1,1.356571573E-1,-1.916013140E0,2.119542183E0
7.214066583E0,-3.734191252E-1,7.413439143E-1,-1.901003337E0,2.074330333E0
7.224117583E0,1.128644183E-2,9.417116225E-1,-1.911225440E0,2.130664414E0
7.234167583E0,1.581762466E-1,5.867306685E-1,-1.949288621E0,2.041812609E0
7.244218583E0,1.958589202E-1,-4.265286541E-1,-2.279442297E0,2.327261179E0
7.254269583E0,3.081273611E-1,-1.636901125E0,-2.837450273E0,3.290214555E0
7.264320583E0,4.904533392E-1,-2.651464376E0,-3.603419151E0,4.500604115E0
7.274371583E0,8.269869125E-1,-3.265130244E0,-4.308359470E0,5.468724183E0
7.284421583E0,1.376906143E0,-3.302865835E0,-4.584301271E0,5.815549105E0
7.294472583E0,2.038426792E0,-2.818763741E0,-4.225049511E0,5.472810630E0
7.304523583E0,2.776035213E0,-1.908851616E0,-3.563407239E0,4.903871649E0
7.314574583E0,3.359731761E0,-7.520408106E-1,-2.580780895E0,4.302765729E0
7.324624583E0,3.655696183E0,4.532065755E-1,-1.598989240E0,4.015753649E0
7.334675583E0,3.820454640E0,1.635504225E0,-8.896328115E-1,4.249964031E0
7.344726583E0,3.616490602E0,2.472270021E0,-2.114866273E-1,4.385869346E0
7.354777583E0,3.301202887E0,3.126473465E0,2.573381536E-1,4.554009195E0
7.364828583E0,2.925816612E0,3.600996650E0,5.787550664E-1,4.675739209E0
7.374878583E0,2.499441447E0,3.868446540E0,8.345554022E-1,4.680659024E0
7.384929583E0,2.062184614E0,4.010159073E0,1.028751374E0,4.625182220E0
7.394980583E0,1.630420363E0,4.067857059E0,1.098141160E0,4.517924924E0
7.405031583E0,1.293937076E0,4.091775679E0,1.113712295E0,4.433650464E0
7.415082583E0,1.123503969E0,4.039199270E0,1.030038639E0,4.317218029E0
7.425132583E0,1.050140343E0,3.893859708E0,1.082298567E0,4.175680586E0
7.435183583E0,1.045013504E0,3.811625637E0,1.415870526E0,4.198241604E0
7.445234583E0,1.115822994E0,3.916838096E0,1.816194298E0,4.459287315E0
7.455285583E0,1.223509410E0,4.119562817E0,2.103404853E0,4.784567385E0
7.465336583E0,1.320095472E0,4.347218896E0,2.284323553E0,5.085184193E0
7.475386583E0,1.352846458E0,4.397002675E0,2.384681508E0,5.181749893E0
7.485437583E0,1.283368672E0,4.255652668E0,2.543066354E0,5.121015648E0
7.495488583E0,1.085397445E0,3.912379010E0,2.671108682E0,4.860001926E0
7.505539583E0,7.884784658E-1,3.427613257E0,2.808455100E0,4.500850029E0
7.515589583E0,4.660831676E-1,2.697901794E0,2.819487627E0,3.930065913E0
7.525640583E0,1.901194395E-1,1.825042305E0,2.660162694E0,3.231623489E0
7.535691583E0,-3.764276639E-2,8.119882196E-1,2.264203138E0,2.405692768E0
7.545742583E0,-3.513534875E-1,-4.735887998E-1,1.631720638E0,1.735006589E0
7.555793583E0,-9.012928905E-1,-2.297612520E0,6.853253956E-1,2.561449407E0
7.565843583E0,-1.771256253E0,-4.786048923E0,-1.666571943E-1,5.106014848E0
7.575894583E0,-2.832056217E0,-7.686631583E0,-3.705588135E-1,8.200131788E0
7.585945583E0,-4.145683499E0,-1.085599671E1,-1.285228233E-1,1.162135424E1
7.595996583E0,-4.827570001E0,-1.174588446E1,8.549928828E-1,1.272801032E1
7.606047583E0,-4.232285733E0,-9.590661001E0,3.224587405E0,1.096772469E1
7.616097583E0,-2.576448693E0,-5.785514663E0,5.145124097E0,8.159814321E0
7.626148583E0,-9.904851486E-1,-3.329654853E0,4.966817933E0,6.061100779E0
7.636199583E0,-3.361008793E-2,-3.033791589E0,3.054772568E0,4.305421754E0
7.646250583E0,4.732097541E-1,-3.367043704E0,9.818023257E-1,3.539045999E0
7.656301583E0,6.276022674E-1,-4.118319699E0,-6.489987644E-1,4.216116833E0
7.666351583E0,5.938157398E-1,-4.567220385E0,-1.448333098E0,4.828021121E0
7.676402583E0,7.780192588E-1,-3.678330755E0,-1.666070545E0,4.112325640E0
7.686453583E0,8.317727123E-1,-2.144681518E0,-1.980870456E0,3.035679895E0
7.696504583E0,5.792278138E-1,-1.117361981E0,-3.288225869E0,3.520856717E0
7.706555583E0,3.881110585E-1,-4.867216462E-1,-5.342025576E0,5.378174914E0
7.716605583E0,2.812160627E-1,1.231581491E-1,-7.079469573E0,7.086123048E0
7.726656583E0,5.441215695E-1,7.737573695E-1,-8.022234864E0,8.077810407E0
7.736707583E0,8.598428558E-1,1.180261064E0,-7.719150288E0,7.856056714E0
7.746758583E0,5.955003957E-1,1.542843398E0,-6.739025967E0,6.938981010E0
7.756808583E0,2.368935833E-1,2.154885494E0,-6.623536441E0,6.969281531E0
7.766859583E0,-4.726874515E-2,2.788817226E0,-6.392091951E0,6.974136174E0
7.776910583E0,-1.631218947E-1,3.301358423E0,-5.340974246E0,6.281049441E0
7.786961583E0,-9.698623113E-2,3.617620869E0,-3.908669536E0,5.326751789E0
7.797012583E0,6.102855921E-2,3.701238976E0,-2.768361619E0,4.622415007E0
7.807062583E0,2.487588995E-1,3.805436359E0,-1.990733393E0,4.301888692E0
7.817113583E0,3.559781966E-1,3.862237381E0,-1.450799453E0,4.141064733E0
7.827164583E0,4.219795934E-1,3.865705365E0,-9.269531040E-1,3.997622644E0
7.837215583E0,5.262536480E-1,3.785220780E0,1.273665364E-1,3.823749664E0
7.847266583E0,7.232976526E-1,3.595769824E0,9.761002672E-1,3.795456738E0
7.857316583E0,8.773906423E-1,3.358534251E0,1.460730511E0,3.766072262E0
7.867367583E0,9.142535363E-1,3.158831956E0,2.224335652E0,3.970106793E0
7.877418583E0,9.243603024E-1,3.263271414E0,2.683150438E0,4.324659358E0
7.887469583E0,7.912209561E-1,3.424627669E0,2.918012041E0,4.568249067E0
7.897520583E0,5.890948440E-1,3.612905089E0,3.101861365E0,4.798089187E0
7.907570583E0,4.254913580E-1,3.763016564E0,3.196923058E0,4.955971509E0
7.917621583E0,2.564863604E-1,3.581502033E0,3.102317448E0,4.745241365E0
7.927672583E0,1.580417606E-1,3.096623429E0,3.008840350E0,4.320552524E0
7.937723583E0,3.482353136E-2,2.463391609E0,3.249663774E0,4.077968310E0
7.947773583E0,-2.367720343E-1,1.954716007E0,3.604190984E0,4.106965828E0
7.957824583E0,-6.622834191E-1,1.657114949E0,3.721669732E0,4.127405345E0
7.967875583E0,-1.116795312E0,1.444488553E0,3.345534722E0,3.811349043E0
7.977926583E0,-1.536836992E0,1.041703688E0,2.609124688E0,3.202272030E0
7.987977583E0,-1.778741420E0,2.546591055E-1,1.899760365E0,2.614930543E0
7.998027583E0,-1.747876308E0,-7.923474222E-1,1.579754240E0,2.485660774E0
8.008078583E0,-1.510388720E0,-1.747626339E0,1.356625660E0,2.678787989E0
8.018129583E0,-1.136061084E0,-2.260529478E0,8.052153897E-1,2.654995317E0
8.028180583E0,-6.742867295E-1,-2.528136658E0,-9.108061641E-2,2.618097255E0
8.038231583E0,-4.642236069E-1,-2.732468194E0,-6.183910024E-1,2.839769959E0
8.048281583E0,-8.139322726E-1,-3.229773300E0,-2.887716155E-1,3.343248474E0
8.058332583E0,-1.459630065E0,-4.193870988E0,4.885421768E-1,4.467409456E0
8.068383583E0,-2.211045223E0,-5.145926920E0,1.212687091E0,5.730610336E0
8.078434583E0,-2.873499235E0,-5.620220309E0,1.622450462E0,6.517378282E0
8.088485583E0,-3.298541234E0,-5.562360941E0,1.934223708E0,6.749922582E0
8.098535583E0,-3.403118101E0,-5.373359635E0,2.462225089E0,6.820319565E0
8.108586583E0,-3.215613975E0,-5.211104663E0,2.412147195E0,6.581355418E0
8.118637583E0,-2.617734421E0,-4.612370245E0,9.174374914E-1,5.382209986E0
8.128688583E0,-1.621914711E0,-3.321072310E0,-7.569033551E-1,3.772668990E0
8.138738583E0,-8.607097786E-1,-2.012720971E0,-1.662259330E0,2.748631133E0
8.148789583E0,-3.990768537E-1,-1.186865494E0,-1.880621259E0,2.259346887E0
8.158840583E0,2.725898847E-2,-6.641606677E-1,-1.812129460E0,1.930198338E0
8.168891583E0,4.375228813E-1,-4.366905302E-1,-1.738498836E0,1.845129560E0
8.178942583E0,7.464432710E-1,-7.699900085E-1,-1.642245334E0,1.961385201E0
8.188992583E0,1.040466709E0,-1.606383337E0,-1.870582759E0,2.676213418E0
8.199043583E0,1.350012459E0,-2.319364747E0,-2.355930895E0,3.571049824E0
8.209094583E0,1.674786989E0,-2.654523640E0,-2.870007570E0,4.253040167E0
8.219145583E0,2.168707873E0,-2.464741731E0,-3.518146867E0,4.812026913E0
8.229196583E0,2.870727362E0,-1.826543285E0,-4.202639472E0,5.407357441E0
8.239246583E0,3.558835594E0,-1.134144659E0,-4.283263221E0,5.683127546E0
8.249297583E0,4.089273948E0,-4.156738830E-1,-3.702057879E0,5.531742830E0
8.259348583E0,4.441549103E0,3.344888020E-1,-2.975135829E0,5.356367649E0
8.269399583E0,4.431066799E0,1.131059668E0,-1.970808421E0,4.979732401E0
8.279450583E0,3.991057682E0,1.878976437E0,-8.385781404E-1,4.490245780E0
8.289500583E0,3.270765206E0,2.503307042E0,-1.660609245E-3,4.118792776E0
8.299551583E0,2.556555296E0,2.958425657E0,4.948896217E-1,3.941214671E0
8.309602583E0,1.872587623E0,3.253091412E0,7.424968390E-1,3.826289285E0
8.319653583E0,1.310898241E0,3.507418980E0,7.589851101E-1,3.820536676E0
8.329703583E0,9.341573122E-1,3.765285868E0,6.118058681E-1,3.927382585E0
8.339754583E0,6.845271045E-1,3.968338033E0,4.079228139E-1,4.047552980E0
8.349805583E0,5.128935642E-1,4.114731263E0,1.735022373E-1,4.150201947E0
8.359856583E0,4.075963931E-1,4.317233205E0,5.725578949E-2,4.336809379E0
8.369907583E0,3.942175251E-1,4.582231942E0,1.234674668E-1,4.600815280E0
8.379957583E0,4.761403786E-1,4.893208505E0,3.335545631E-1,4.927621919E0
8.390008583E0,6.096622789E-1,5.195637023E0,8.222296178E-1,5.295506937E0
8.400059583E0,7.423667385E-1,5.335885999E0,1.481382584E0,5.587242802E0
8.410110583E0,8.191308859E-1,5.172621213E0,2.065595587E0,5.629713204E0
8.420161583E0,8.635942832E-1,4.812556690E0,2.539679646E0,5.509670561E0
8.430211583E0,8.934294087E-1,4.220241930E0,2.976805794E0,5.241186011E0
8.440262583E0,8.380882169E-1,3.338132731E0,3.428666925E0,4.858114745E0
8.450313583E0,7.163657784E-1,2.312154545E0,3.847775463E0,4.545834861E0
8.460364583E0,5.245069385E-1,1.296926465E0,3.961957551E0,4.201694113E0
8.470415583E0,2.804074658E-1,4.443562299E-1,3.740403042E0,3.777127973E0
8.480465583E0,2.789458081E-2,-3.509990001E-1,3.207916993E0,3.227182957E0
8.490516583E0,-2.251198491E-1,-1.279508194E0,2.528189868E0,2.842457418E0
8.500567583E0,-4.606168981E-1,-2.442374377E0,1.996820637E0,3.188205323E0
8.510618583E0,-6.918491341E-1,-3.978688189E0,1.876160857E0,4.452931000E0
8.520668583E0,-1.060153846E0,-5.859316465E0,1.951442735E0,6.266070887E0
8.530719583E0,-1.685983238E0,-7.940228834E0,1.728128506E0,8.299168726E0
8.540770583E0,-2.963818251E0,-1.054274500E1,1.403836956E0,1.104103478E1
8.550821583E0,-3.825988153E0,-1.095259973E1,1.879271722E0,1.175284172E1
8.560872583E0,-3.092084236E0,-7.610525978E0,3.255149632E0,8.836124134E0
8.570922583E0,-1.638314543E0,-3.519622704E0,4.107549713E0,5.651883152E0
8.580973583E0,-3.705569132E-1,-1.572512171E0,3.372840049E0,3.739807074E0
8.591024583E0,4.957579333E-1,-1.467020799E0,1.815770960E0,2.386409464E0
8.601075583E0,8.349462886E-1,-2.421991568E0,2.338229911E-1,2.572518542E0
8.611125583E0,7.478960118E-1,-4.038699918E0,-9.287927842E-1,4.211068927E0
8.621176583E0,7.060137217E-1,-4.437433248E0,-1.421880440E0,4.712856160E0
8.631227583E0,8.759444797E-1,-3.191465267E0,-1.726708510E0,3.732861042E0
8.641278583E0,7.519566107E-1,-1.991770982E0,-2.427092679E0,3.228524316E0
8.651329583E0,6.390337202E-1,-1.159940236E0,-3.791244582E0,4.015888560E0
8.661379583E0,7.156230359E-1,-5.404786080E-1,-5.684315733E0,5.754622386E0
8.671430583E0,8.637727694E-1,-2.974841130E-1,-7.229593327E0,7.287085828E0
8.681481583E0,1.128576356E0,7.996652126E-2,-8.321643881E0,8.398204338E0
8.691532583E0,1.294452800E0,5.257278371E-1,-8.314276389E0,8.430847507E0
8.701583583E0,1.218945293E0,1.067855945E0,-7.866886039E0,8.032063240E0
8.711633583E0,1.021900630E0,1.771402872E0,-7.733582386E0,7.999402825E0
8.721684583E0,6.805983603E-1,2.274810718E0,-6.907081962E0,7.303818122E0
8.731735583E0,4.107774246E-1,2.739683658E0,-5.440997887E0,6.105658248E0
8.741786583E0,2.102394162E-1,3.199139153E0,-3.578249227E0,4.804431232E0
8.751837583E0,1.112922482E-1,3.749171526E0,-2.178294968E0,4.337469547E0
8.761887583E0,8.282098576E-2,4.112703449E0,-1.502253635E0,4.379264203E0
8.771938583E0,3.847643316E-2,4.231596054E0,-9.645216107E-1,4.340298093E0
8.781989583E0,-2.478164014E-1,4.100183390E0,1.319447601E-1,4.109784206E0
8.792040583E0,-6.256528057E-1,3.784342529E0,8.791453917E-1,3.935172986E0
8.802091583E0,-6.044937788E-1,3.595488573E0,1.141077264E0,3.820341363E0
8.812141583E0,-6.929485568E-1,3.347654922E0,1.729054413E0,3.831005135E0
8.822192583E0,-7.396126999E-1,3.276834615E0,2.481865886E0,4.176641033E0
8.832243583E0,-6.748080088E-1,3.654049022E0,3.182506163E0,4.892421239E0
8.842294583E0,-6.138215496E-1,4.104530210E0,3.644573025E0,5.523301338E0
8.852344583E0,-5.066420867E-1,4.236465030E0,3.857802268E0,5.752126607E0
8.862395583E0,-2.917088181E-1,4.291820621E0,3.865673790E0,5.783446388E0
8.872446583E0,1.177447969E-1,3.999217764E0,3.765043209E0,5.493919996E0
8.882497583E0,6.639368655E-1,3.503952166E0,3.841570398E0,5.241770318E0
8.892548583E0,1.031828472E0,3.159975672E0,3.950871230E0,5.163283812E0
8.902598583E0,9.519926356E-1,2.784958064E0,3.957395554E0,4.931861815E0
8.912649583E0,4.364923096E-1,2.331825163E0,3.676597055E0,4.375534257E0
8.922700583E0,-2.881306875E-1,1.824449982E0,2.933684041E0,3.466718777E0
8.932751583E0,-9.981532603E-1,1.137368229E0,2.024309713E0,2.527399105E0
8.942802583E0,-1.510041542E0,2.408947599E-1,1.218901073E0,1.955498803E0
8.952852583E0,-1.759499841E0,-7.791590273E-1,6.301192014E-1,2.024840411E0
8.962903583E0,-1.640071777E0,-1.755313674E0,1.191763414E-1,2.405236896E0
8.972954583E0,-1.263969219E0,-2.580356387E0,-2.945768774E-1,2.888361613E0
8.983005583E0,-7.447464091E-1,-3.125085336E0,-7.759652781E-1,3.304985277E0
8.993056583E0,-3.917952430E-1,-3.484089759E0,-1.036857369E0,3.656153466E0
9.003106583E0,-4.618299030E-1,-3.970026709E0,-7.634536985E-1,4.069061376E0
9.013157583E0,-1.041972879E0,-4.666334783E0,-8.797589108E-2,4.782063106E0
9.023208583E0,-1.863298152E0,-5.360029153E0,7.447295983E-1,5.723321998E0
9.033259583E0,-2.610354357E0,-5.796968189E0,1.700349408E0,6.581031695E0
9.043309583E0,-3.227870616E0,-5.825344727E0,2.852470601E0,7.245024391E0
9.053360583E0,-3.791448357E0,-5.674992932E0,3.742343148E0,7.783685352E0
9.063411583E0,-4.326727914E0,-5.573611568E0,3.379777186E0,7.823593431E0
9.073462583E0,-4.231087346E0,-5.265104869E0,1.578127252E0,6.936419468E0
9.083513583E0,-3.018444402E0,-4.228088894E0,-4.416669492E-1,5.213713839E0
9.093563583E0,-1.716683313E0,-2.797348899E0,-1.691150276E0,3.692174388E0
9.103614583E0,-9.775671874E-1,-1.679915582E0,-2.083122178E0,2.849061596E0
9.113665583E0,-5.181780584E-1,-7.439997196E-1,-1.945975442E0,2.146826613E0
9.123716583E0,-1.495783545E-1,-1.550184578E-1,-1.825325164E0,1.837992481E0
9.133766583E0,2.406446452E-1,4.639180899E-3,-1.725390401E0,1.742097415E0
9.143817583E0,5.646743864E-1,-2.755278182E-1,-1.669030405E0,1.783377480E0
9.153868583E0,9.069272675E-1,-9.552596211E-1,-1.898050786E0,2.310332183E0
9.163923333E0,1.243374740E0,-1.525045059E0,-2.352833040E0,3.067175653E0
9.173974333E0,1.615507917E0,-1.849525766E0,-2.859550702E0,3.769302536E0
9.184024333E0,2.080389043E0,-1.907269360E0,-3.339541326E0,4.372439965E0
9.194075333E0,2.669871411E0,-1.565466861E0,-3.618701434E0,4.761711868E0
9.204126333E0,3.332417078E0,-9.936805058E-1,-3.460293345E0,4.905714481E0
9.214177333E0,3.948930247E0,-3.283708602E-1,-3.010808523E0,4.976629932E0
9.224228333E0,4.428008998E0,4.601852274E-1,-2.417629545E0,5.065961581E0
9.234278333E0,4.610964867E0,1.381644434E0,-1.567685294E0,5.062368569E0
9.244329333E0,4.376350602E0,2.317084917E0,-6.800778119E-1,4.998383032E0
9.254380333E0,3.883266600E0,3.104466884E0,-3.081950426E-2,4.971762662E0
9.264431333E0,3.214714673E0,3.699657889E0,4.328389692E-1,4.920285408E0
9.274482333E0,2.448665835E0,4.121305872E0,8.496216305E-1,4.868570979E0
9.284532333E0,1.683196455E0,4.284309872E0,1.040724864E0,4.719276388E0
9.294583333E0,1.179665964E0,4.264276727E0,9.622296484E-1,4.527864142E0
9.304634333E0,8.799151777E-1,4.218571966E0,7.539122120E-1,4.374812427E0
9.314685333E0,6.670500693E-1,4.255171443E0,5.544142771E-1,4.342673715E0
9.324735333E0,5.008686921E-1,4.315559147E0,4.526165915E-1,4.368040977E0
9.334786333E0,3.785298841E-1,4.411227781E0,4.429162069E-1,4.449538198E0
9.344837333E0,3.048945086E-1,4.563158909E0,5.064687167E-1,4.601292259E0
9.354888333E0,3.006670448E-1,4.748172998E0,7.198787856E-1,4.811836755E0
9.364939333E0,3.254210130E-1,4.841803878E0,1.131144014E0,4.982815510E0
9.374989333E0,3.399863541E-1,4.780946642E0,1.619023848E0,5.059078941E0
9.385040333E0,2.885288098E-1,4.560596659E0,2.100245018E0,5.029246454E0
9.395091333E0,1.427376238E-1,4.144067913E0,2.637417026E0,4.914228471E0
9.405142333E0,-9.498246342E-2,3.542712774E0,3.169864483E0,4.754774054E0
9.415192333E0,-3.767790815E-1,2.767503541E0,3.539810801E0,4.509024155E0
9.425243333E0,-6.714892023E-1,1.795492231E0,3.641444764E0,4.115192592E0
9.435294333E0,-9.554924134E-1,7.159243137E-1,3.411778120E0,3.614656736E0
9.445345333E0,-1.170135587E0,-3.698328817E-1,2.969232481E0,3.212839115E0
9.455396333E0,-1.343934278E0,-1.418115272E0,2.383348927E0,3.081811542E0
9.465446333E0,-1.523437367E0,-2.534442880E0,1.922463934E0,3.527056805E0
9.475497333E0,-1.760502639E0,-4.118103937E0,1.745610073E0,4.806797697E0
9.485548333E0,-2.121547448E0,-6.395538885E0,1.975195148E0,7.021771648E0
9.495599333E0,-2.822643369E0,-9.685976463E0,2.146120079E0,1.031461521E1
9.505650333E0,-3.830563307E0,-1.322731865E1,1.970001798E0,1.391100575E1
9.515700333E0,-3.538393435E0,-1.292620108E1,2.799971960E0,1.369111921E1
9.525751333E0,-2.185407083E0,-8.721966484E0,4.419986326E0,1.001923064E1
9.535802333E0,-6.398722109E-1,-4.072043665E0,4.601861629E0,6.178034195E0
9.545853333E0,4.143472228E-1,-1.869202232E0,3.310997558E0,3.824696776E0
9.555904333E0,8.304716337E-1,-1.390056823E0,1.532143725E0,2.229216342E0
9.565954333E0,8.915101332E-1,-1.830408880E0,-1.641405527E-1,2.042579033E0
9.576005333E0,9.430839640E-1,-2.886792587E0,-1.365046527E0,3.329614216E0
9.586056333E0,1.292669107E0,-2.955093328E0,-2.098304912E0,3.847915475E0
9.596107333E0,1.761638022E0,-1.724737998E0,-2.858873302E0,3.775082282E0
9.606157333E0,1.855771470E0,-5.224592435E-1,-3.891010945E0,4.342443734E0
9.616208333E0,1.784261777E0,6.933335960E-2,-5.188251990E0,5.486925908E0
9.626259333E0,1.862931385E0,2.559811610E-1,-6.303163987E0,6.577683175E0
9.636310333E0,2.046902039E0,3.271511310E-1,-7.083360311E0,7.380435564E0
9.646361333E0,2.031870894E0,7.063535911E-1,-7.084675934E0,7.404057524E0
9.656411333E0,1.751943631E0,1.129418939E0,-6.747428416E0,7.062059463E0
9.666462333E0,1.328144019E0,1.427613489E0,-6.755012255E0,7.030806310E0
9.676513333E0,9.097127348E-1,1.807663211E0,-6.790836976E0,7.085950210E0
9.686564333E0,4.592847562E-1,2.293908309E0,-6.239844489E0,6.663979071E0
9.696615333E0,6.431568112E-2,2.642616954E0,-5.028511906E0,5.680976400E0
9.706665333E0,-1.019727366E-1,2.867903742E0,-3.703138736E0,4.684923352E0
9.716716333E0,-9.359988928E-2,3.224242419E0,-2.616202158E0,4.153193211E0
9.726767333E0,6.627183057E-2,3.643257401E0,-1.588097778E0,3.974892577E0
9.736818333E0,5.784482338E-2,3.843250887E0,-8.049907105E-1,3.927076960E0
9.746868333E0,-5.936970413E-2,3.816872343E0,-6.676818609E-2,3.817917919E0
9.756919333E0,-3.337914484E-1,3.646381568E0,1.015524680E0,3.799842845E0
9.766970333E0,-5.746833578E-1,3.523283061E0,1.581732645E0,3.904569458E0
9.777021333E0,-7.471053220E-1,3.275508467E0,2.163910525E0,3.996202052E0
9.787072333E0,-8.546765484E-1,3.006166418E0,2.456367348E0,3.975078501E0
9.797122333E0,-7.582566932E-1,2.930954853E0,2.531404667E0,3.946322231E0
9.807173333E0,-3.988723473E-1,3.020364043E0,2.490824990E0,3.935213747E0
9.817224333E0,4.497093558E-2,3.236060811E0,2.529516601E0,4.107622937E0
9.827275333E0,4.011803895E-1,3.434001925E0,2.758895270E0,4.423213542E0
9.837326333E0,7.212277383E-1,3.572563394E0,3.059716973E0,4.758702198E0
9.847376333E0,1.025617194E0,3.566449546E0,3.445511584E0,5.063892087E0
9.857427333E0,1.219755351E0,3.508121815E0,3.680513520E0,5.228852796E0
9.867478333E0,1.095712226E0,3.403409293E0,3.680145146E0,5.131008516E0
9.877529333E0,5.066796550E-1,2.976461393E0,3.353060088E0,4.512101357E0
9.887579333E0,-3.111544646E-1,2.367945753E0,2.548914739E0,3.492985906E0
9.897630333E0,-9.817980134E-1,1.535326803E0,1.640104376E0,2.451754085E0
9.907681333E0,-1.356327744E0,4.719264364E-1,1.102766161E0,1.810644282E0
9.917732333E0,-1.565701626E0,-7.952078801E-1,1.099059172E0,2.071643845E0
9.927783333E0,-1.611197057E0,-2.037882124E0,1.155225333E0,2.843143521E0
9.937833333E0,-1.511527173E0,-3.054211235E0,8.865633157E-1,3.521209334E0
9.947884333E0,-1.198942553E0,-3.783308156E0,2.688855274E-1,3.977836507E0
9.957935333E0,-8.432234609E-1,-4.150194626E0,-3.422539043E-1,4.248797356E0
9.967986333E0,-8.454209176E-1,-4.444294370E0,-3.645660022E-1,4.538655897E0
9.978037333E0,-1.385411064E0,-5.071324634E0,3.594286385E-1,5.269429410E0
9.988087333E0,-2.283772599E0,-5.814736124E0,1.166268385E0,6.355073203E0
9.998138333E0,-3.208045339E0,-6.303171589E0,1.626452297E0,7.257194640E0
1.000818933E1,-3.976600149E0,-6.117410810E0,2.128144277E0,7.600333007E0
1.001824033E1,-4.415953793E0,-5.484889426E0,2.779611955E0,7.570396459E0
1.002829033E1,-4.427628929E0,-4.710272516E0,2.992540652E0,7.123613174E0
1.003834133E1,-3.907810872E0,-3.849077053E0,2.100337404E0,5.873482543E0
1.004839233E1,-2.704287538E0,-2.747983196E0,4.133092690E-1,3.877551713E0
1.005844333E1,-1.392173369E0,-1.598505383E0,-9.732080881E-1,2.332487970E0
1.006849433E1,-6.037482588E-1,-8.484000009E-1,-1.668609260E0,1.966863336E0
1.007854433E1,-1.044492517E-1,-4.478557885E-1,-1.881664256E0,1.937045386E0
1.008859533E1,3.011526561E-1,-3.349320209E-1,-1.996641712E0,2.046814722E0
1.009864633E1,6.889073999E-1,-7.646392214E-1,-2.224374536E0,2.450940354E0
1.010869733E1,1.104582160E0,-1.416184521E0,-2.599752771E0,3.159809300E0
1.011874833E1,1.517905901E0,-2.048080838E0,-3.100694261E0,4.014097450E0
1.012879833E1,1.977105872E0,-2.504291713E0,-3.655040710E0,4.851777736E0
1.013884933E1,2.522773007E0,-2.772010574E0,-4.159170102E0,5.598850079E0
1.014890033E1,3.223808848E0,-2.677215514E0,-4.484836625E0,6.137930103E0
1.015895133E1,3.920045587E0,-2.233652167E0,-4.340481734E0,6.260650213E0
1.016899871E1,4.559667829E0,-1.610581638E0,-3.787281339E0,6.142315839E0
1.017904871E1,4.926812453E0,-8.221091652E-1,-3.074460143E0,5.865291945E0
1.018909971E1,5.001256279E0,2.580949295E-1,-2.120062547E0,5.438183757E0
1.019915071E1,4.683839593E0,1.429161832E0,-1.253156548E0,5.054825240E0
1.020920171E1,3.960879909E0,2.423110140E0,-5.169510202E-1,4.671966477E0
1.021925171E1,3.042020960E0,3.057505556E0,2.069845636E-1,4.317994252E0
1.022930271E1,2.153439770E0,3.491028650E0,7.431787705E-1,4.168560730E0
1.023935371E1,1.441603976E0,3.841703129E0,9.791769259E-1,4.218494093E0
1.024940471E1,1.004633949E0,4.151635380E0,9.349509256E-1,4.372584926E0
1.025945571E1,6.947375125E-1,4.349698116E0,6.654762912E-1,4.454816787E0
1.026950571E1,4.587924937E-1,4.498116236E0,3.469259758E-1,4.534743417E0
1.027955671E1,2.554307187E-1,4.685125396E0,1.199569447E-1,4.693616356E0
1.028960771E1,1.054946608E-1,4.925788606E0,3.545298412E-2,4.927045710E0
1.029965871E1,3.868020862E-2,5.269447011E0,1.020970631E-1,5.270577936E0
1.030970971E1,1.577966161E-2,5.571497800E0,3.078233059E-1,5.580017197E0
1.031975971E1,6.348468214E-2,5.741819006E0,6.309098911E-1,5.776725984E0
1.032981071E1,1.441766236E-1,5.815571691E0,1.102078675E0,5.920830887E0
1.033986171E1,2.699178533E-1,5.674339213E0,1.634005730E0,5.911087538E0
1.034991271E1,4.048840159E-1,5.269179209E0,2.241277521E0,5.740340193E0
1.035996271E1,5.081376582E-1,4.593019470E0,2.967653732E0,5.491903168E0
1.037001371E1,5.541585345E-1,3.766981561E0,3.665239424E0,5.284999696E0
1.038006471E1,4.439706060E-1,2.880814394E0,4.110447593E0,5.039045632E0
1.039011571E1,2.240574832E-1,1.979630408E0,4.079017639E0,4.539550992E0
1.040016671E1,-3.774341159E-2,1.122056710E0,3.485048118E0,3.661419972E0
1.041021671E1,-2.526526335E-1,2.689847839E-1,2.694029768E0,2.719187848E0
1.042026771E1,-4.155255099E-1,-8.531882858E-1,2.005646278E0,2.218830479E0
1.043031871E1,-5.792092489E-1,-2.417445357E0,1.407632968E0,2.856738697E0
1.044036971E1,-9.258892031E-1,-4.553191161E0,1.024952731E0,4.758082456E0
1.045042071E1,-1.636137478E0,-7.117623240E0,1.038003570E0,7.376649500E0
1.046047071E1,-2.713646591E0,-9.995769550E0,1.287423570E0,1.043727676E1
1.047052171E1,-4.159993390E0,-1.304583862E1,1.582792307E0,1.378421857E1
1.048057271E1,-4.273346928E0,-1.290949909E1,2.670416372E0,1.385813062E1
1.049062371E1,-2.685071833E0,-8.994146771E0,4.206944485E0,1.028604243E1
1.050067371E1,-1.042418949E0,-4.893855207E0,4.477900658E0,6.714763611E0
1.051072471E1,3.396048233E-2,-3.236895209E0,3.239652171E0,4.579736903E0
1.052077571E1,6.665708899E-1,-2.804543313E0,1.471575780E0,3.236559164E0
1.053082671E1,9.424417204E-1,-2.843682235E0,-1.964195951E-1,3.002216799E0
1.054087771E1,1.090288861E0,-3.095926441E0,-1.156333527E0,3.480028384E0
1.055092771E1,1.384156398E0,-2.354846821E0,-1.366274735E0,3.054160954E0
1.056097871E1,1.550727784E0,-8.403875613E-1,-1.393347051E0,2.247759755E0
1.057102971E1,1.383274199E0,4.103839070E-1,-1.798857011E0,2.306024503E0
1.058108071E1,1.093371805E0,8.788897222E-1,-3.092254390E0,3.395577456E0
1.059113171E1,6.754794154E-1,7.381343776E-1,-5.091415082E0,5.188797774E0
1.060118171E1,1.906118482E-1,1.958220828E-1,-6.856204169E0,6.861648109E0
1.061123271E1,-1.583393108E-1,-3.435806376E-1,-8.058659509E0,8.067534449E0
1.062128371E1,-2.218038201E-1,-1.121039879E-1,-8.084504203E0,8.088323216E0
1.063133471E1,-1.426971319E-1,4.909100068E-1,-7.716306202E0,7.733222906E0
1.064138471E1,-4.257065356E-2,1.359874665E0,-7.698840569E0,7.818133887E0
1.065143571E1,4.638566941E-2,2.395363348E0,-7.238071790E0,7.624277043E0
1.066148671E1,9.786652945E-2,3.111119261E0,-5.858862137E0,6.634373102E0
1.067153771E1,1.180747991E-1,3.473794566E0,-4.062360091E0,5.346396904E0
1.068158871E1,2.809423399E-1,3.686256655E0,-2.386639302E0,4.400393606E0
1.069163871E1,4.066291174E-1,3.805857943E0,-1.343561518E0,4.056483634E0
1.070168971E1,4.174865198E-1,3.784087590E0,-7.788070250E-1,3.885891695E0
1.071174071E1,3.043176808E-1,3.612330308E0,-1.034280355E-1,3.626601283E0
1.072179171E1,5.956361242E-2,3.221484872E0,8.085390933E-1,3.321934387E0
1.073184271E1,-1.282067082E-1,2.830903730E0,1.253289133E0,3.098578148E0
1.074189271E1,-2.239200005E-1,2.565728992E0,1.820456918E0,3.153913255E0
1.075194371E1,-3.061273210E-1,2.496502637E0,2.486498051E0,3.536794015E0
1.076199471E1,-3.266166955E-1,2.660407108E0,2.895309641E0,3.945537019E0
1.077204571E1,-2.583443132E-1,3.136240069E0,3.148851929E0,4.451742583E0
1.078209571E1,-2.178372882E-1,3.507069901E0,3.272964928E0,4.802009142E0
1.079214671E1,-1.277733564E-1,3.658433849E0,3.353897409E0,4.964785201E0
1.080219771E1,3.130021848E-2,3.519132122E0,3.325660036E0,4.842033175E0
1.081224871E1,4.469192107E-1,3.315311633E0,3.399931369E0,4.769754849E0
1.082229971E1,9.478369463E-1,3.113487384E0,3.640301049E0,4.883030851E0
1.083234971E1,1.067629657E0,2.794583166E0,3.768652110E0,4.811680256E0
1.084240071E1,7.442579473E-1,2.570300930E0,3.647193747E0,4.523537221E0
1.085245171E1,2.284407022E-1,2.341385361E0,3.189637427E0,3.963339183E0
1.086250271E1,-3.364952009E-1,1.924143255E0,2.333205252E0,3.042926722E0
1.087255371E1,-8.117718726E-1,1.196610464E0,1.440642840E0,2.041152118E0
1.088260371E1,-1.107240158E0,3.512843442E-1,9.298452830E-1,1.487949498E0
1.089265471E1,-1.245043828E0,-6.116257739E-1,7.700560820E-1,1.586570702E0
1.090270571E1,-1.204193572E0,-1.719692436E0,5.016750231E-1,2.158495323E0
1.091275671E1,-9.490729746E-1,-2.635162339E0,-1.164706886E-1,2.803281200E0
1.092280771E1,-6.255856358E-1,-3.248748100E0,-5.504941575E-1,3.353917921E0
1.093285771E1,-6.475411266E-1,-3.647793671E0,-3.031348622E-1,3.717203105E0
1.094290871E1,-1.333184172E0,-4.217487307E0,5.829909356E-1,4.461441208E0
1.095295971E1,-2.421587817E0,-4.887569450E0,1.478849716E0,5.651497073E0
1.096301071E1,-3.628636146E0,-5.486836549E0,2.145596023E0,6.919245471E0
1.097306071E1,-4.665039333E0,-5.644152963E0,2.855104187E0,7.859432203E0
1.098311171E1,-5.575431222E0,-5.518736034E0,3.924812529E0,8.771888856E0
1.099316271E1,-6.234953878E0,-5.208776886E0,4.496407095E0,9.285670858E0
1.100321371E1,-6.199984605E0,-5.109380652E0,3.404264156E0,8.725513979E0
1.101326471E1,-5.247593043E0,-4.685908338E0,1.299854751E0,7.154340785E0
1.102331471E1,-3.053091493E0,-3.241336169E0,-7.577080051E-1,4.516829557E0
1.103336571E1,-1.195124321E0,-1.803829191E0,-1.991134804E0,2.940533915E0
1.104341671E1,-3.186962034E-1,-6.833611697E-1,-2.321375020E0,2.440764581E0
1.105346771E1,1.689360005E-1,2.321075642E-1,-2.109219325E0,2.128666121E0
1.106351871E1,5.370397143E-1,7.846548253E-1,-1.948248986E0,2.167895053E0
1.107356871E1,8.075332260E-1,7.806296021E-1,-1.971496346E0,2.268984427E0
1.108361971E1,1.029118579E0,-3.923481703E-4,-2.041468806E0,2.286193363E0
1.109367071E1,1.301582749E0,-1.250316555E0,-2.312519996E0,2.933454938E0
1.110372171E1,1.540703464E0,-2.472538993E0,-2.742758124E0,4.001242102E0
1.111377171E1,1.911145041E0,-3.510038533E0,-3.229254652E0,5.138183675E0
1.112382271E1,2.578909786E0,-4.012456445E0,-3.658111668E0,6.011020161E0
1.113387371E1,3.564131125E0,-3.747710307E0,-3.867566826E0,6.458052057E0
1.114392471E1,4.706520065E0,-2.807894352E0,-3.925656867E0,6.741393302E0
1.115397571E1,5.653923075E0,-1.480647150E0,-3.898649747E0,7.025569868E0
1.116402571E1,6.072685457E0,-2.192939758E-2,-3.401124201E0,6.960289893E0
1.117407700E1,5.895607209E0,1.450408275E0,-2.462170125E0,6.551652483E0
1.118412800E1,5.247386051E0,2.747969747E0,-1.396299749E0,6.085725190E0
1.119417900E1,4.283885365E0,3.705139069E0,-3.682984261E-1,5.675858796E0
1.120423000E1,3.293203603E0,4.300148225E0,4.682404979E-1,5.436516706E0
1.121428000E1,2.425672390E0,4.671571550E0,1.035896380E0,5.364750562E0
1.122433100E1,1.747244370E0,4.822090575E0,1.235318154E0,5.275550336E0
1.123438200E1,1.327593649E0,4.798922737E0,1.163666228E0,5.113343664E0
1.124443300E1,1.036434470E0,4.724239175E0,9.613138282E-1,4.931202335E0
1.125448300E1,7.830027676E-1,4.745950472E0,7.020858546E-1,4.861076399E0
1.126453400E1,5.671223232E-1,4.810799017E0,4.827531409E-1,4.868106974E0
1.127458500E1,4.003686498E-1,4.926515999E0,3.481926289E-1,4.955006867E0
1.128463600E1,2.567326013E-1,5.090986481E0,3.415161319E-1,5.108883268E0
1.129468700E1,1.477562159E-1,5.270875486E0,4.805826545E-1,5.294801222E0
1.130473700E1,1.065532261E-1,5.307528173E0,7.103630269E-1,5.355914910E0
1.131478800E1,1.057319847E-1,5.188015178E0,9.990669608E-1,5.284393582E0
1.132483900E1,3.040441042E-1,4.781812030E0,1.417601302E0,4.996775216E0
1.133489000E1,5.248204223E-1,4.078368014E0,2.132540506E0,4.632089284E0
1.134494100E1,5.132216661E-1,3.343556024E0,3.113292964E0,4.597320572E0
1.135499100E1,2.903126492E-1,2.644171729E0,3.904969710E0,4.724903598E0
1.136504200E1,-4.846113861E-2,1.842661135E0,4.192257156E0,4.579603542E0
1.137509300E1,-3.287195005E-1,8.651025724E-1,3.874867952E0,3.983849974E0
1.138514400E1,-5.527608307E-1,-2.909767467E-1,3.228889786E0,3.288759835E0
1.139519400E1,-8.172550260E-1,-1.655182444E0,2.342384212E0,2.982331051E0
1.140524500E1,-1.164593304E0,-3.187566344E0,1.523592464E0,3.719971875E0
1.141529600E1,-1.662314293E0,-4.987062163E0,1.243036187E0,5.401779040E0
1.142534700E1,-2.500994468E0,-7.359278138E0,1.501085654E0,7.916262135E0
1.143539800E1,-3.966571881E0,-1.068500074E1,1.813725896E0,1.154090702E1
1.144544800E1,-5.046285102E0,-1.257318128E1,2.300941340E0,1.374205996E1
1.145549900E1,-4.508078138E0,-1.082173905E1,3.696026183E0,1.229200610E1
1.146555000E1,-2.761520669E0,-6.815608120E0,5.192259672E0,9.002114804E0
1.147560100E1,-1.068224612E0,-3.461828824E0,5.501890790E0,6.587576557E0
1.148565100E1,1.204299845E-1,-2.049276009E0,4.080119255E0,4.567429110E0
1.149570200E1,8.123932124E-1,-1.864696952E0,2.001979051E0,2.853944214E0
1.150575300E1,1.035889070E0,-2.587835560E0,7.924161270E-2,2.788590735E0
1.151580400E1,9.476234499E-1,-4.125411787E0,-1.131885295E0,4.381572427E0
1.152585500E1,8.693230927E-1,-4.784649684E0,-1.547529942E0,5.103277786E0
1.153590500E1,1.253215312E0,-3.085784445E0,-1.625632371E0,3.706115873E0
1.154595600E1,1.360021430E0,-1.237694755E0,-1.980633059E0,2.702675325E0
1.155600700E1,1.352794856E0,-2.783923692E-1,-3.398377179E0,3.668313466E0
1.156605800E1,1.452056605E0,-2.250990915E-1,-5.595039275E0,5.784773329E0
1.157610900E1,1.527885198E0,-6.642688411E-1,-7.821915103E0,7.997377205E0
1.158615900E1,1.547172677E0,-1.120472699E0,-9.451637017E0,9.642750886E0
1.159621000E1,1.540518546E0,-7.463479614E-1,-9.618756287E0,9.769887675E0
1.160626100E1,1.555246805E0,2.428898299E-1,-8.834940537E0,8.974071673E0
1.161631200E1,1.607137920E0,1.523934088E0,-8.308188268E0,8.598328890E0
1.162636200E1,1.448943255E0,2.657034434E0,-7.205121560E0,7.814924519E0
1.163641300E1,1.148742818E0,3.207252749E0,-5.622191405E0,6.573820537E0
1.164646400E1,9.041896742E-1,3.424216025E0,-3.991634510E0,5.336287137E0
1.165651500E1,6.542648399E-1,3.787247425E0,-2.446814167E0,4.556117329E0
1.166656600E1,5.007220001E-1,4.198247044E0,-1.532454504E0,4.497156610E0
1.167661600E1,4.188910210E-1,4.470054279E0,-1.009430566E0,4.601717615E0
1.168666700E1,2.220195092E-1,4.497525083E0,-2.397052900E-1,4.509377247E0
1.169671800E1,-1.685102501E-1,4.130864316E0,8.025351723E-1,4.211472237E0
1.170676900E1,-3.625276628E-1,3.739013743E0,1.058558872E0,3.902844727E0
1.171682000E1,-5.250483175E-1,3.436806834E0,1.915290716E0,3.969339426E0
1.172687000E1,-6.390837139E-1,3.657367902E0,2.739165595E0,4.613869972E0
1.173692100E1,-6.437597322E-1,4.337609582E0,3.166923333E0,5.409129956E0
1.174697200E1,-6.652369939E-1,4.829322996E0,3.369560931E0,5.926115230E0
1.175702300E1,-6.320012739E-1,5.080895941E0,3.340101489E0,6.113199419E0
1.176707300E1,-4.076187587E-1,5.086399341E0,3.145876865E0,5.994510202E0
1.177712400E1,8.403720662E-2,4.729678840E0,3.228999714E0,5.727422049E0
1.178717500E1,6.976253792E-1,3.975661086E0,3.653014357E0,5.443994502E0
1.179722600E1,1.037583740E0,3.409348894E0,4.128908422E0,5.454184142E0
1.180727700E1,9.044275097E-1,3.077498941E0,4.305898962E0,5.369334663E0
1.181732700E1,3.967511968E-1,2.790088411E0,3.888211298E0,4.802102868E0
1.182737800E1,-3.274383755E-1,2.327382449E0,2.878137538E0,3.715857996E0
1.183742900E1,-1.135537685E0,1.713768622E0,1.801430225E0,2.733422686E0
1.184748000E1,-1.802577595E0,1.000487834E0,1.100761589E0,2.337078939E0
1.185753000E1,-2.289114469E0,1.942854345E-2,6.991026051E-1,2.393567833E0
1.186758100E1,-2.531040970E0,-1.122985833E0,3.444631286E-1,2.790326221E0
1.187763200E1,-2.467811811E0,-2.310765247E0,-5.321916416E-2,3.381207394E0
1.188768300E1,-1.979015573E0,-3.417029212E0,-3.530009405E-1,3.964492520E0
1.189773400E1,-1.014680488E0,-3.884748577E0,-4.745214307E-1,4.043020973E0
1.190778400E1,-3.772991914E-1,-4.152973223E0,-2.145039368E-1,4.175590163E0
1.191783500E1,-3.898657349E-1,-4.807526915E0,6.185441995E-1,4.862808577E0
1.192788600E1,-8.698692226E-1,-5.606195177E0,1.796787390E0,5.951011826E0
1.193793700E1,-1.556991614E0,-6.276712353E0,2.601708080E0,6.970668962E0
1.194798700E1,-2.360719180E0,-6.530874445E0,3.093085864E0,7.602137609E0
1.195803800E1,-3.233451199E0,-6.312106719E0,3.235699453E0,7.795360725E0
1.196808900E1,-3.940554695E0,-5.796653025E0,2.827713490E0,7.558116245E0
1.197814000E1,-3.911971459E0,-5.174556642E0,1.666392142E0,6.697493554E0
1.198819100E1,-2.966479904E0,-4.252574694E0,8.844615340E-2,5.185770654E0
1.199824100E1,-1.501829858E0,-2.890291561E0,-1.396669439E0,3.544003915E0
1.200829200E1,-6.367996453E-1,-1.772472328E0,-2.105090021E0,2.824637311E0
1.201834300E1,-2.314915600E-1,-9.650420129E-1,-2.112593168E0,2.334083187E0
1.202839400E1,1.351762969E-1,-5.072623301E-1,-2.040871221E0,2.107307059E0
1.203844500E1,4.568589657E-1,-3.521520710E-1,-2.048556655E0,2.128218871E0
1.204849500E1,7.507183166E-1,-6.605687231E-1,-2.229155073E0,2.443166259E0
1.205854600E1,1.147747475E0,-1.374307348E0,-2.635655844E0,3.186334364E0
1.206859700E1,1.566343943E0,-2.040909812E0,-3.008753811E0,3.958705054E0
1.207864800E1,2.010099371E0,-2.552679176E0,-3.283522661E0,4.619328038E0
1.208869800E1,2.595680477E0,-2.914537041E0,-3.533120416E0,5.264505977E0
1.209874900E1,3.373385887E0,-2.835408425E0,-3.734635348E0,5.776398053E0
1.210880000E1,4.255185476E0,-2.312066252E0,-3.732497606E0,6.114228665E0
1.211885100E1,5.138938327E0,-1.466938938E0,-3.567692664E0,6.425653891E0
1.212890100E1,5.682637582E0,-2.273046613E-1,-3.041155572E0,6.449237514E0
1.213895200E1,5.785419939E0,1.222470945E0,-2.214818870E0,6.314344123E0
1.214900300E1,5.244372396E0,2.606920872E0,-1.188190327E0,5.975891107E0
1.215905400E1,4.330350556E0,3.706310266E0,-2.421587817E-1,5.705025206E0
1.216910471E1,3.337848557E0,4.419539014E0,5.056743725E-1,5.561408513E0
1.217915471E1,2.381412183E0,4.824483256E0,1.054156942E0,5.482518539E0
1.218920571E1,1.607358652E0,4.983698845E0,1.337233661E0,5.404539747E0
1.219925671E1,1.165301767E0,5.040218031E0,1.207164542E0,5.312153259E0
1.220930771E1,8.786328833E-1,5.072536177E0,8.748267844E-1,5.221871400E0
1.221935871E1,6.333317348E-1,5.089334643E0,4.593278794E-1,5.149118206E0
1.222940871E1,4.213665128E-1,5.112115980E0,2.252676375E-1,5.134396268E0
1.223945971E1,2.664812985E-1,5.224346268E0,9.830338955E-2,5.232061712E0
1.224951071E1,1.479644499E-1,5.479243355E0,4.613935545E-2,5.481435037E0
1.225956171E1,6.115493216E-2,5.774250003E0,1.575779302E-1,5.776723450E0
1.226961171E1,-7.519300058E-3,5.972920264E0,5.212802987E-1,5.995628922E0
1.227966271E1,-3.761893898E-2,5.885548244E0,9.998972654E-1,5.969998983E0
1.228971371E1,7.959229946E-3,5.387043289E0,1.585346224E0,5.615480513E0
1.229976471E1,7.389477253E-2,4.515198877E0,2.409953320E0,5.118628365E0
1.230981471E1,9.164231457E-2,3.373763325E0,3.461637036E0,4.834625968E0
1.231986571E1,5.087501541E-2,2.048680762E0,4.367008213E0,4.823944637E0
1.232991671E1,-8.544879757E-2,6.467242706E-1,4.756697069E0,4.801220760E0
1.233996771E1,-2.473250891E-1,-4.140442640E-1,4.336185200E0,4.362923841E0
1.235001871E1,-3.395684244E-1,-1.004693152E0,3.322556334E0,3.487706357E0
1.236006871E1,-3.710280526E-1,-1.592407322E0,2.328522656E0,2.845248786E0
1.237011971E1,-4.560239833E-1,-2.497328264E0,1.773971700E0,3.097027918E0
1.238017071E1,-6.015744102E-1,-3.885984678E0,1.753434963E0,4.305496819E0
1.239022171E1,-9.043330041E-1,-5.999985856E0,2.093779167E0,6.418844106E0
1.240027271E1,-1.791667714E0,-9.351192377E0,2.213420070E0,9.775177772E0
1.241032271E1,-3.122548814E0,-1.258810688E1,2.115581095E0,1.314102086E1
1.242037371E1,-3.421132788E0,-1.225197384E1,2.807134799E0,1.302670405E1
1.243042471E1,-2.387148302E0,-8.545419163E0,4.029328001E0,9.744647239E0
1.244047571E1,-1.085292342E0,-5.123627393E0,4.408532799E0,6.845770853E0
1.245052571E1,-1.558414534E-1,-3.855011392E0,3.462668484E0,5.184155903E0
1.246057671E1,2.153471784E-1,-4.032370892E0,1.650828169E0,4.362524849E0
1.247062771E1,2.201557823E-1,-5.004589777E0,-5.527105446E-1,5.039829000E0
1.248067871E1,3.784446974E-1,-5.645276797E0,-2.122356703E0,6.042910597E0
1.249072871E1,1.182649359E0,-4.083986018E0,-2.571644036E0,4.968999331E0
1.250077971E1,2.023172576E0,-1.658271528E0,-2.594216627E0,3.684162271E0
1.251083071E1,2.544534297E0,1.034495240E-1,-3.240898798E0,4.121744971E0
1.252088171E1,2.921703973E0,1.066502899E0,-4.133560467E0,5.173016980E0
1.253093271E1,3.048392378E0,1.234853593E0,-5.139173970E0,6.101530020E0
1.254098271E1,2.693221682E0,8.172969067E-1,-5.884187597E0,6.522659039E0
1.255103371E1,1.863396824E0,3.995449233E-1,-6.208346708E0,6.494263062E0
1.256108471E1,1.214724261E0,3.022115868E-1,-6.469658775E0,6.589641230E0
1.257113571E1,8.108091286E-1,3.588483024E-1,-7.098961852E0,7.154120695E0
1.258118671E1,3.217834236E-1,5.997565109E-1,-7.675203785E0,7.705323198E0
1.259123671E1,-9.239221998E-2,1.287165123E0,-7.439993688E0,7.551081807E0
1.260128771E1,-1.710333236E-1,2.357642959E0,-5.924132266E0,6.378328608E0
1.261133871E1,-1.718072757E-1,3.315062542E0,-3.858416226E0,5.089846085E0
1.262138971E1,-1.321309939E-1,3.967286704E0,-2.536354920E0,4.710617652E0
1.263143971E1,6.941083521E-3,4.274845569E0,-1.746063671E0,4.617693273E0
1.264149071E1,-1.639421859E-1,4.292055094E0,-9.824772406E-1,4.406117963E0
1.265154171E1,-5.856487144E-1,4.171039950E0,-2.342356583E-1,4.218462400E0
1.266159271E1,-7.972293357E-1,4.018137599E0,-4.532030672E-2,4.096713111E0
1.267164271E1,-9.923175198E-1,3.788566557E0,1.771238565E-1,3.920370324E0
1.268169371E1,-1.152748599E0,3.538023307E0,3.883894591E-1,3.741294512E0
1.269174471E1,-1.240529047E0,3.421760194E0,7.713762371E-1,3.720534430E0
1.270179571E1,-1.195944758E0,3.430797651E0,1.568487532E0,3.957374069E0
1.271184671E1,-8.732683553E-1,3.845065278E0,2.451945830E0,4.643184572E0
1.272189671E1,-3.793237898E-1,4.517329602E0,3.065786383E0,5.472586173E0
1.273194771E1,2.698158194E-1,5.133650690E0,3.338516893E0,6.129670875E0
1.274199871E1,8.497108005E-1,5.285927389E0,3.433180976E0,6.360013240E0
1.275204971E1,1.217134045E0,4.911159457E0,3.485303056E0,6.143959626E0
1.276209971E1,1.555665904E0,4.178653609E0,3.700884050E0,5.794634168E0
1.277215071E1,1.881910132E0,3.294430642E0,4.088501823E0,5.577697209E0
1.278220171E1,1.721629765E0,2.417847646E0,4.370951575E0,5.283485020E0
1.279225271E1,1.052785770E0,1.737468556E0,3.870552707E0,4.371307941E0
1.280230371E1,2.503419600E-1,1.244644756E0,2.804649732E0,3.078615238E0
1.281235371E1,-3.810065453E-1,6.666942662E-1,1.936328998E0,2.083030778E0
1.282240471E1,-7.552371179E-1,-8.354969501E-2,1.282280505E0,1.490505602E0
1.283245571E1,-9.809362800E-1,-9.458151984E-1,6.529864924E-1,1.511024068E0
1.284250671E1,-1.187325597E0,-1.932990677E0,1.773592070E-2,2.268591985E0
1.285255671E1,-1.366731987E0,-2.784490287E0,-6.514181229E-1,3.169493343E0
1.286260771E1,-1.604490301E0,-3.208913358E0,-8.759887724E-1,3.693084131E0
1.287265871E1,-1.937790656E0,-3.426757225E0,-3.484390891E-1,3.952101657E0
1.288270971E1,-2.420875042E0,-3.794884474E0,7.505440696E-1,4.563452699E0
1.289276071E1,-3.032680910E0,-4.496355640E0,1.940898890E0,5.760334716E0
1.290281071E1,-3.770959421E0,-5.531096463E0,2.706257465E0,7.220595025E0
1.291286171E1,-4.654962241E0,-6.761319646E0,3.172629046E0,8.800550659E0
1.292291271E1,-5.510527128E0,-7.595791579E0,3.532646792E0,1.002704105E1
1.293296371E1,-6.139374121E0,-7.666211936E0,3.442319005E0,1.040731859E1
1.294301371E1,-6.163728359E0,-7.122493971E0,2.569444313E0,9.763376042E0
1.295306471E1,-5.400953815E0,-6.105716379E0,1.169225614E0,8.235117676E0
1.296311571E1,-3.205899704E0,-4.488025112E0,-6.236943539E-1,5.550599694E0
1.297316671E1,-1.207872420E0,-3.001956423E0,-1.989791114E0,3.798679616E0
1.298321671E1,-3.315839052E-1,-1.898389778E0,-2.451003113E0,3.117891578E0
1.299326771E1,7.022330582E-2,-9.856897008E-1,-2.336030481E0,2.536445132E0
1.300331871E1,3.446150831E-1,-2.254446620E-1,-1.994629101E0,2.036695878E0
1.301336971E1,5.588385728E-1,5.161337256E-2,-1.835733354E0,1.919604500E0
1.302342071E1,8.628725906E-1,-1.987591392E-1,-1.992339331E0,2.180245471E0
1.303347071E1,1.289319530E0,-7.424431908E-1,-2.524535358E0,2.930331980E0
1.304352171E1,1.743734725E0,-1.367091883E0,-3.090318961E0,3.802581004E0
1.305357271E1,2.304551557E0,-2.049975336E0,-3.216449250E0,4.456332857E0
1.306362371E1,3.084227917E0,-2.395874394E0,-2.989646280E0,4.918400231E0
1.307367371E1,4.203985794E0,-2.128605768E0,-2.911961342E0,5.539312045E0
1.308372471E1,5.547844058E0,-1.172646235E0,-3.087578956E0,6.456532870E0
1.309377571E1,6.867979292E0,2.502655077E-1,-3.379063826E0,7.658318661E0
1.310382671E1,7.537198970E0,1.662604900E0,-3.387032411E0,8.428855908E0
1.311387771E1,7.411815371E0,2.899746509E0,-2.905317736E0,8.472567973E0
1.312392771E1,6.517741599E0,3.844874659E0,-1.852917005E0,7.790848357E0
1.313397871E1,5.195265725E0,4.497973564E0,-5.973057966E-1,6.897776914E0
1.314402971E1,3.803733357E0,5.044230976E0,5.913875373E-1,6.345265385E0
1.315408071E1,2.400331434E0,5.381641631E0,1.372155718E0,6.050328004E0
1.316413071E1,1.441264106E0,5.438311676E0,1.673385265E0,5.869641757E0
1.317418533E1,1.034542018E0,5.441860936E0,1.659916789E0,5.782685481E0
1.318423633E1,8.295477006E-1,5.423083187E0,1.560780756E0,5.703859852E0
1.319428733E1,6.819139838E-1,5.357096774E0,1.457981004E0,5.593675101E0
1.320433733E1,5.760726928E-1,5.236793236E0,1.337585810E0,5.435531155E0
1.321438833E1,4.985824673E-1,5.153664540E0,1.185910205E0,5.311800607E0
1.322443933E1,4.159677786E-1,5.246896639E0,1.250151225E0,5.409790349E0
1.323449033E1,3.091117398E-1,5.423022376E0,1.421704147E0,5.614798700E0
1.324454133E1,2.046682622E-1,5.419257354E0,1.548815014E0,5.639952776E0
1.325459133E1,9.151542999E-2,5.230125071E0,1.796014534E0,5.530664656E0
1.326464233E1,-2.835592613E-2,4.666250584E0,2.283099438E0,5.194924601E0
1.327469333E1,-1.394899341E-1,3.611070233E0,2.860043914E0,4.608593805E0
1.328474433E1,-2.765750545E-1,2.384985124E0,3.493078684E0,4.238660932E0
1.329479433E1,-4.687365610E-1,1.322560658E0,4.053395140E0,4.289393060E0
1.330484533E1,-6.603648745E-1,4.129970276E-1,4.085005188E0,4.158595400E0
1.331489633E1,-7.472290637E-1,-5.491494441E-1,3.394725008E0,3.519101343E0
1.332494733E1,-7.228858624E-1,-1.467561082E0,2.564906874E0,3.042210836E0
1.333499833E1,-7.081646930E-1,-2.493694219E0,1.956586092E0,3.247804986E0
1.334504833E1,-8.232297841E-1,-4.127528479E0,1.292124732E0,4.402702005E0
1.335509933E1,-1.138464143E0,-6.569609326E0,7.971826310E-1,6.715010606E0
1.336515033E1,-1.860234503E0,-9.565227367E0,7.061005528E-1,9.769985925E0
1.337520133E1,-3.170686017E0,-1.297419970E1,8.740454502E-1,1.338458304E1
1.338525133E1,-3.803378139E0,-1.292957141E1,1.595162384E0,1.357144227E1
1.339530233E1,-2.509237872E0,-8.713206185E0,3.117603239E0,9.588309897E0
1.340535333E1,-8.141550516E-1,-4.305048777E0,4.401139580E0,6.210178985E0
1.341540433E1,5.188839635E-1,-2.115195764E0,4.260356169E0,4.784760012E0
1.342545433E1,1.296448601E0,-1.979636840E0,2.709941211E0,3.597710711E0
1.343550533E1,1.647264145E0,-2.994228158E0,7.477010071E-1,3.498276464E0
1.344555633E1,1.616037675E0,-4.691409983E0,-8.335603523E-1,5.031473766E0
1.345560733E1,1.451878265E0,-5.720549759E0,-1.512018486E0,6.092523282E0
1.346565833E1,1.304383858E0,-4.878180576E0,-1.471487925E0,5.259595012E0
1.347570833E1,9.656351399E-1,-3.182710231E0,-1.541718687E0,3.665923096E0
1.348575933E1,5.726845602E-1,-1.492907007E0,-2.172904712E0,2.697823906E0
1.349581033E1,3.451823361E-1,-2.710248774E-1,-3.669090400E0,3.695244199E0
1.350586133E1,2.824403965E-1,3.257641715E-1,-5.138538963E0,5.156595538E0
1.351591133E1,6.862129299E-1,6.275413102E-1,-6.619220027E0,6.684217983E0
1.352596233E1,1.316937391E0,7.569097871E-1,-7.733495847E0,7.881255898E0
1.353601333E1,1.614729068E0,9.951575124E-1,-8.137154871E0,8.355296394E0
1.354606433E1,1.718353131E0,1.577444882E0,-8.278436465E0,8.600789507E0
1.355611433E1,1.603020311E0,2.205870291E0,-7.710082426E0,8.178074888E0
1.356616533E1,1.454995854E0,2.811831282E0,-6.514046159E0,7.242665632E0
1.357621633E1,1.170550447E0,3.218450167E0,-4.651586351E0,5.776319365E0
1.358626733E1,1.031631567E0,3.467954952E0,-2.962401763E0,4.676194975E0
1.359631833E1,9.215367550E-1,3.793099903E0,-1.792380782E0,4.295284127E0
1.360636833E1,8.184676655E-1,4.201327942E0,-1.067551743E0,4.411429759E0
1.361641933E1,6.380174010E-1,4.499714865E0,-1.547100171E-1,4.547354754E0
1.362647033E1,2.422166692E-1,4.577339576E0,9.985548909E-1,4.691249128E0
1.363652133E1,3.726869076E-2,4.562808076E0,1.581106993E0,4.829130959E0
1.364657133E1,-7.518642247E-2,4.596786246E0,2.319073555E0,5.149194010E0
1.365662233E1,-1.670232300E-1,4.701123962E0,2.879607528E0,5.515487538E0
1.366667333E1,-2.422038784E-1,4.957519106E0,3.080011489E0,5.841414998E0
1.367672433E1,-2.094336699E-1,5.197001179E0,3.252373374E0,6.134379861E0
1.368677433E1,-1.254034799E-1,5.242358615E0,3.348928446E0,6.222007041E0
1.369682533E1,8.519992545E-2,5.099057393E0,3.286094266E0,6.066799886E0
1.370687633E1,3.670994546E-1,4.565495456E0,3.179505372E0,5.575640338E0
1.371692733E1,7.399190209E-1,3.792827423E0,3.195551301E0,5.014435974E0
1.372697833E1,1.136935535E0,3.241276528E0,3.555729260E0,4.943855430E0
1.373702833E1,1.381033107E0,2.868911802E0,3.996759886E0,5.109989918E0
1.374707933E1,1.314125319E0,2.415441517E0,4.080489968E0,4.920536704E0
1.375713033E1,8.086716789E-1,1.808617476E0,3.484413110E0,4.008264186E0
1.376718133E1,9.442025363E-2,1.168771870E0,2.450869796E0,2.716929448E0
1.377723133E1,-5.638747066E-1,3.032523912E-1,1.469928327E0,1.603310944E0
1.378728233E1,-1.058100889E0,-7.540446514E-1,7.151381555E-1,1.483099258E0
1.379733333E1,-1.492385436E0,-1.688874686E0,9.162791580E-2,2.255639082E0
1.380738433E1,-1.998073988E0,-2.436949915E0,-4.893464613E-1,3.189119707E0
1.381743533E1,-2.350023453E0,-3.253277938E0,-9.789268112E-1,4.130947261E0
1.382748533E1,-2.123000627E0,-4.161478583E0,-8.708445382E-1,4.752200108E0
1.383753633E1,-1.823084803E0,-4.770392418E0,4.978757948E-3,5.106888173E0
1.384758733E1,-1.918699789E0,-5.472451814E0,1.082829202E0,5.899292908E0
1.385763833E1,-2.160910757E0,-6.446985612E0,2.239345308E0,7.158758705E0
1.386768833E1,-2.343373122E0,-7.343349738E0,3.400429552E0,8.424909738E0
1.387773933E1,-2.537975475E0,-7.747067235E0,4.681473809E0,9.400774823E0
1.388779033E1,-2.709373154E0,-7.364849365E0,5.633626220E0,9.660199452E0
1.389784133E1,-2.750418561E0,-6.203480655E0,4.803415153E0,8.313890283E0
1.390789133E1,-2.524386254E0,-4.825332271E0,2.164128042E0,5.860017719E0
1.391794233E1,-1.654479901E0,-3.218236159E0,-4.460115767E-1,3.645994247E0
1.392799333E1,-7.052933447E-1,-1.782378681E0,-2.101908112E0,2.844702124E0
1.393804433E1,-1.605955321E-1,-8.128892756E-1,-2.737468733E0,2.860124990E0
1.394809533E1,1.843578856E-1,-1.585437441E-1,-2.655900074E0,2.667007528E0
1.395814533E1,5.287732132E-1,3.538769996E-1,-2.296744208E0,2.383246525E0
1.396819633E1,8.168224782E-1,3.558293849E-1,-2.068735542E0,2.252438735E0
1.397824733E1,1.018492434E0,-2.466905200E-1,-2.012263134E0,2.268785131E0
1.398829833E1,1.340347011E0,-1.256316968E0,-2.358431164E0,2.989491594E0
1.399834833E1,1.840135723E0,-2.396427541E0,-2.967185955E0,4.234755829E0
1.400839933E1,2.399973439E0,-3.495163801E0,-3.503801308E0,5.500242368E0
1.401845033E1,3.107113919E0,-4.077504964E0,-3.809262192E0,6.386758340E0
1.402850133E1,4.227906461E0,-3.661919374E0,-4.298156079E0,7.054005403E0
1.403855133E1,5.611663494E0,-2.381148182E0,-5.058647286E0,7.921524234E0
1.404860233E1,6.572631167E0,-5.859845638E-1,-5.197543216E0,8.399840108E0
1.405865333E1,6.693467971E0,1.156762859E0,-4.528332893E0,8.163725410E0
1.406870433E1,5.860208166E0,2.330113099E0,-3.237060685E0,7.088725462E0
1.407875433E1,4.422901163E0,3.141133019E0,-1.615648981E0,5.660308558E0
1.408880533E1,3.133767282E0,3.821242552E0,-2.617235653E-1,4.948827260E0
1.409885633E1,2.173429939E0,4.465402234E0,6.534403825E-1,5.009051721E0
1.410890733E1,1.533583017E0,5.015441040E0,1.150979085E0,5.369476562E0
1.411895833E1,1.127735014E0,5.290259006E0,1.379654188E0,5.582299911E0
1.412900833E1,8.395965792E-1,5.325245821E0,1.455299763E0,5.584000615E0
1.413905933E1,6.595656332E-1,5.222226652E0,1.369251845E0,5.438890387E0
1.414911033E1,5.088030714E-1,5.042519495E0,1.251218780E0,5.220290400E0
1.415916133E1,3.641865179E-1,4.952684628E0,1.235099176E0,5.117341773E0
1.416920746E1,2.162228720E-1,4.971410336E0,1.421907045E0,5.175277066E0
1.417925846E1,4.361569718E-2,5.043721683E0,1.745314496E0,5.337335799E0
1.418930946E1,-1.044078827E-1,5.041149493E0,2.139765179E0,5.477470606E0
1.419936046E1,-2.684768801E-1,4.932105938E0,2.570458220E0,5.568213742E0
1.420941046E1,-4.319644450E-1,4.616985453E0,3.075881016E0,5.564547778E0
1.421946146E1,-5.417899923E-1,4.011136143E0,3.632645874E0,5.438645567E0
1.422951246E1,-6.212724372E-1,3.173048292E0,4.161893735E0,5.270253729E0
1.423956346E1,-6.725694754E-1,2.194631943E0,4.398211294E0,4.961151243E0
1.424961346E1,-6.817665609E-1,1.245375658E0,4.212049981E0,4.444899461E0
1.425966446E1,-6.513413052E-1,3.936772424E-1,3.642600466E0,3.721258581E0
1.426971546E1,-6.214020261E-1,-4.835471928E-1,2.894169434E0,2.999362446E0
1.427976646E1,-6.320315333E-1,-1.592690327E0,2.301791379E0,2.869559180E0
1.428981746E1,-7.217794231E-1,-3.056552460E0,1.875621890E0,3.658064509E0
1.429986746E1,-1.051577150E0,-5.155389469E0,1.622553081E0,5.506045185E0
1.430991846E1,-1.885900272E0,-8.271431501E0,1.417404689E0,8.601292633E0
1.431996946E1,-3.276508926E0,-1.148417011E1,1.007963061E0,1.198489313E1
1.433002046E1,-4.191558414E0,-1.246280924E1,1.266473289E0,1.320964536E1
1.434007046E1,-3.387755419E0,-9.539685559E0,2.933468571E0,1.053981618E1
1.435012146E1,-1.785075270E0,-4.726083387E0,4.591717880E0,6.826875639E0
1.436017246E1,-4.414963567E-1,-1.104421508E0,5.022125577E0,5.161047491E0
1.437022346E1,5.318475330E-1,4.277489680E-1,3.930006026E0,3.988831701E0
1.438027346E1,1.076481538E0,3.902496046E-1,2.212014545E0,2.490806216E0
1.439032446E1,1.314923318E0,-6.881079394E-1,5.722413412E-1,1.590589834E0
1.440037546E1,1.320415023E0,-2.535828670E0,-6.823373953E-1,2.939303863E0
1.441042646E1,1.020760789E0,-5.039320484E0,-1.299415040E0,5.303318110E0
1.442047646E1,7.230901495E-1,-6.451355236E0,-1.345537877E0,6.629729702E0
1.443052746E1,7.856533105E-1,-5.571023006E0,-1.096430045E0,5.731989820E0
1.444057846E1,7.649830377E-1,-3.994411352E0,-2.166891582E0,4.608246980E0
1.445062946E1,9.168021183E-1,-2.323544337E0,-3.999265126E0,4.715241877E0
1.446068046E1,1.258325194E0,-1.184221383E0,-6.235966616E0,6.470938279E0
1.447073046E1,1.804817371E0,-1.116186690E-1,-8.821647477E0,9.005070165E0
1.448078146E1,2.515735591E0,1.138172221E0,-9.798113780E0,1.017975418E1
1.449083246E1,2.663554372E0,1.819583929E0,-9.319742543E0,9.862201003E0
1.450088346E1,2.149793739E0,2.153480408E0,-9.164007801E0,9.655989331E0
1.451093346E1,1.258307067E0,2.384816725E0,-8.487086170E0,8.905128811E0
1.452098446E1,1.177377071E-1,2.264789175E0,-6.096378375E0,6.504533916E0
1.453103546E1,-3.072927441E-1,2.688750317E0,-3.231283636E0,4.214854806E0
1.454108646E1,-2.160586383E-1,3.575820293E0,-1.645635549E0,3.942244090E0
1.455113646E1,-1.921955665E-1,4.416345849E0,-1.256947005E0,4.595755168E0
1.456118746E1,-2.905681725E-1,4.984668313E0,-1.290625505E0,5.157233973E0
1.457123846E1,-7.448502702E-1,5.114215130E0,-9.375459199E-1,5.252522316E0
1.458128946E1,-1.206416975E0,4.884991997E0,-8.535226735E-1,5.103634949E0
1.459133946E1,-1.489290504E0,4.417361510E0,-5.327512933E-1,4.692003076E0
1.460139046E1,-1.707127939E0,3.861753232E0,3.348466516E-2,4.222386179E0
1.461144146E1,-1.739956693E0,3.512250534E0,8.522808710E-1,4.011201290E0
1.462149246E1,-1.542898508E0,3.605624721E0,2.011650199E0,4.407698034E0
1.463154346E1,-8.779068053E-1,4.260347398E0,3.004113461E0,5.286395558E0
1.464159346E1,1.161591782E-1,4.936039360E0,3.708982444E0,6.175316047E0
1.465164446E1,9.285641581E-1,5.242565607E0,3.900683409E0,6.600155801E0
1.466169546E1,1.579078448E0,5.261945618E0,3.552149595E0,6.542119472E0
1.467174646E1,2.088972609E0,4.856008519E0,3.066112658E0,6.111110548E0
1.468179646E1,2.579469364E0,4.197670509E0,2.948991759E0,5.742007688E0
1.469184746E1,2.939171068E0,3.482810388E0,3.371573835E0,5.668880391E0
1.470189846E1,2.802690330E0,2.686838862E0,3.923034976E0,5.519454645E0
1.471194946E1,1.719051873E0,1.734222182E0,3.800163925E0,4.517068936E0
1.472199946E1,3.249595946E-1,1.047681881E0,2.740108166E0,2.951512972E0
1.473205046E1,-7.395420948E-1,3.482823837E-1,1.858949139E0,2.030742483E0
1.474210146E1,-1.516898718E0,-4.952831393E-1,1.563117303E0,2.233746362E0
1.475215246E1,-2.144995806E0,-1.477620631E0,1.212700832E0,2.873153850E0
1.476220246E1,-2.646759707E0,-2.675833232E0,4.863458164E-1,3.794990472E0
1.477225346E1,-2.996289886E0,-3.933356481E0,-1.327692175E-1,4.946379883E0
1.478230446E1,-3.120053222E0,-4.998149069E0,-4.524856138E-1,5.909396708E0
1.479235546E1,-2.961144027E0,-5.760220778E0,-5.606345451E-1,6.500986729E0
1.480240546E1,-2.836030861E0,-6.254908671E0,4.807361439E-2,6.867988395E0
1.481245646E1,-2.831741052E0,-6.665853910E0,1.309218774E0,7.359783933E0
1.482250746E1,-2.941028143E0,-6.762750460E0,2.774390391E0,7.879193002E0
1.483255846E1,-3.303257598E0,-6.337369614E0,4.084767791E0,8.231591116E0
1.484260946E1,-3.864220757E0,-5.479485430E0,4.791438886E0,8.241046610E0
1.485265946E1,-4.542536949E0,-4.617132218E0,4.055567966E0,7.642001268E0
1.486271046E1,-4.601321931E0,-3.879129987E0,1.990990963E0,6.339073906E0
1.487276146E1,-3.535695823E0,-2.987476963E0,1.082904339E-3,4.628840538E0
1.488281246E1,-2.122859709E0,-1.921710228E0,-1.471973391E0,3.219659797E0
1.489286246E1,-1.336474693E0,-1.046514777E0,-2.120427121E0,2.716168065E0
1.490291346E1,-8.495912249E-1,-3.195538437E-1,-2.129525535E0,2.314907971E0
1.491296446E1,-3.616928266E-1,1.207537740E-1,-2.073944242E0,2.108707636E0
1.492301546E1,1.395804928E-1,6.346743286E-2,-2.269709022E0,2.274882387E0
1.493306546E1,5.176703739E-1,-6.241317987E-1,-2.655482583E0,2.776528564E0
1.494311646E1,8.722608800E-1,-1.735072367E0,-2.888481263E0,3.480609023E0
1.495316746E1,1.262153658E0,-2.852881075E0,-2.856268952E0,4.229684931E0
1.496321846E1,1.811818388E0,-3.788661867E0,-2.858647599E0,5.080207743E0
1.497326846E1,2.702059164E0,-4.119635323E0,-2.933681409E0,5.734021759E0
1.498331946E1,4.016117971E0,-3.578746240E0,-3.302816133E0,6.312307234E0
1.499337046E1,5.550420926E0,-2.318426269E0,-3.775719932E0,7.101995060E0
1.500342146E1,6.731826875E0,-7.412655616E-1,-4.001415732E0,7.866275839E0
1.501347146E1,7.124740471E0,8.564568794E-1,-3.690868939E0,8.069569920E0
1.502352246E1,6.557740062E0,2.188417522E0,-2.769631927E0,7.447414786E0
1.503357346E1,5.412021425E0,3.272484287E0,-1.585397680E0,6.520169869E0
1.504362446E1,4.136538746E0,4.092805374E0,-4.341138084E-1,5.835277493E0
1.505367446E1,2.956553670E0,4.808730857E0,5.797257773E-1,5.674608712E0
1.506372546E1,1.931699319E0,5.266274312E0,1.288120412E0,5.755376755E0
1.507377646E1,1.286863992E0,5.470136901E0,1.578865170E0,5.837056782E0
1.508382746E1,9.715199239E-1,5.567016494E0,1.548356738E0,5.859431047E0
1.509387746E1,7.531611371E-1,5.506391977E0,1.324424751E0,5.713291978E0
1.510392846E1,5.506126367E-1,5.357188575E0,1.056544944E0,5.488071695E0
1.511397946E1,3.537092576E-1,5.200507169E0,8.413279398E-1,5.279982742E0
1.512403046E1,1.914276078E-1,5.091848946E0,6.572469199E-1,5.137659363E0
1.513408146E1,2.325306103E-2,5.063176539E0,5.872637884E-1,5.097173347E0
1.514413146E1,-1.015464015E-1,5.132491772E0,6.310652809E-1,5.172139485E0
1.515418246E1,-1.792662033E-1,5.035821510E0,7.246830042E-1,5.090854556E0
1.516423346E1,-2.416843533E-1,4.778358665E0,1.000369282E0,4.887930191E0
1.517428475E1,-2.379286136E-1,4.245079148E0,1.651478087E0,4.561215504E0
1.518433475E1,-1.161087459E-1,3.339983375E0,2.515631218E0,4.182985849E0
1.519438575E1,-3.222649053E-2,2.297814249E0,3.517876725E0,4.201957344E0
1.520443675E1,-8.455190778E-2,1.274926901E0,4.238760062E0,4.427151962E0
1.521448775E1,-2.326521593E-1,3.596131182E-1,4.302825665E0,4.324090347E0
1.522453775E1,-3.653395157E-1,-5.287982100E-1,3.747170609E0,3.801892698E0
1.523458875E1,-4.571354659E-1,-1.550723691E0,2.955089235E0,3.368422359E0
1.524463975E1,-5.746171381E-1,-2.909082758E0,2.069627974E0,3.616117711E0
1.525469075E1,-8.136641778E-1,-4.756182514E0,1.322284670E0,5.003174817E0
1.526474075E1,-1.293588582E0,-6.763636898E0,1.003770461E0,6.959002130E0
1.527479175E1,-2.165116514E0,-8.904218348E0,9.561903517E-1,9.213421400E0
1.528484275E1,-3.378244046E0,-1.082085612E1,1.446778908E0,1.142788822E1
1.529489375E1,-3.688457255E0,-1.044129464E1,2.671852448E0,1.139140668E1
1.530494375E1,-2.351922774E0,-7.059770889E0,4.413594149E0,8.651688798E0
1.531499475E1,-7.198793703E-1,-3.091220017E0,5.257819823E0,6.141541891E0
1.532504575E1,4.996912090E-1,-1.304179936E0,4.008558691E0,4.244893330E0
1.533509675E1,1.202190754E0,-1.422471448E0,1.881018870E0,2.647058673E0
1.534514675E1,1.487189746E0,-2.357550573E0,1.758550838E-1,2.792973873E0
1.535519775E1,1.367405148E0,-4.053117397E0,-9.478055175E-1,4.381311764E0
1.536524875E1,9.430051728E-1,-5.737715430E0,-1.644110742E0,6.042659782E0
1.537529975E1,6.038896152E-1,-5.603763320E0,-2.037716063E0,5.993257276E0
1.538534975E1,2.748574349E-1,-4.462447636E0,-2.148711419E0,4.960438113E0
1.539540075E1,2.770966262E-2,-3.007854509E0,-3.122189795E0,4.335438350E0
1.540545175E1,1.374698672E-1,-1.544988742E0,-4.998204618E0,5.233348601E0
1.541550275E1,5.773400402E-1,-3.370797032E-1,-7.122912047E0,7.154216958E0
1.542555375E1,1.169177082E0,5.048901147E-1,-8.956900592E0,9.046986089E0
1.543560375E1,1.560803560E0,7.199600619E-1,-9.663414981E0,9.815092427E0
1.544565475E1,1.614950970E0,1.229291137E0,-9.889491727E0,1.009560647E1
1.545570575E1,1.496633730E0,2.176482185E0,-9.773450224E0,1.012409584E1
1.546575675E1,8.763836056E-1,2.806199829E0,-8.250870352E0,8.758976382E0
1.547580675E1,2.129647303E-1,2.973491008E0,-5.840334649E0,6.557172528E0
1.548585775E1,3.113306120E-2,3.347400568E0,-3.630613382E0,4.938361404E0
1.549590875E1,4.243762940E-2,3.978658369E0,-2.370951222E0,4.631731109E0
1.550595975E1,1.392309755E-1,4.610906103E0,-1.913524711E0,4.994138281E0
1.551600975E1,4.784513444E-2,4.992868448E0,-1.286864576E0,5.156262691E0
1.552606075E1,-3.019873461E-1,5.066247497E0,-6.036782384E-1,5.111016285E0
1.553611175E1,-4.825116509E-1,4.976330184E0,-5.869435072E-3,4.999671393E0
1.554616275E1,-5.943411121E-1,4.873302244E0,8.819998562E-1,4.988009610E0
1.555621275E1,-6.729254977E-1,4.667204849E0,1.890222387E0,5.080213628E0
1.556626375E1,-6.415755048E-1,4.523933448E0,2.944197042E0,5.435613046E0
1.557631475E1,-5.037651104E-1,4.603437454E0,3.676656697E0,5.912970501E0
1.558636575E1,-1.994077416E-1,4.671505476E0,4.252060139E0,6.320027080E0
1.559641575E1,2.828027777E-1,4.677064424E0,4.529843813E0,6.517238220E0
1.560646675E1,6.732216592E-1,4.461033779E0,4.361166844E0,6.274856654E0
1.561651775E1,1.073091030E0,3.981093734E0,3.919883326E0,5.689122689E0
1.562656875E1,1.574291478E0,3.446435444E0,3.577261047E0,5.210864375E0
1.563661875E1,1.921713444E0,3.043849969E0,3.534468784E0,5.044846359E0
1.564666975E1,1.784910525E0,2.546658883E0,3.598356340E0,4.756000988E0
1.565672075E1,1.052223998E0,1.894928226E0,3.362944221E0,4.000915166E0
1.566677175E1,1.107266763E-1,1.221675723E0,2.616754135E0,2.890009372E0
1.567682275E1,-7.279675314E-1,4.577346593E-1,1.567643194E0,1.788005293E0
1.568687275E1,-1.381428087E0,-4.801242328E-1,6.595029218E-1,1.604308867E0
1.569692375E1,-1.841159278E0,-1.362699455E0,7.139494166E-2,2.291705594E0
1.570697475E1,-2.025678985E0,-2.303875473E0,-4.032440181E-1,3.094159544E0
1.571702575E1,-1.949264355E0,-3.092321048E0,-6.975470996E-1,3.721377829E0
1.572707575E1,-1.631930699E0,-3.597794130E0,-7.611088188E-1,4.023258262E0
1.573712675E1,-1.359925536E0,-3.759422280E0,-4.978753562E-1,4.028713593E0
1.574717775E1,-1.533825238E0,-4.054199132E0,3.688306689E-1,4.350308785E0
1.575722875E1,-2.089624428E0,-4.631401763E0,1.516205092E0,5.302385352E0
1.576727875E1,-2.835247627E0,-5.276148505E0,2.487456994E0,6.485662222E0
1.577732975E1,-3.687140754E0,-5.859084331E0,3.304324715E0,7.670882476E0
1.578738075E1,-4.525993129E0,-6.069759511E0,4.137784495E0,8.628317035E0
1.579743175E1,-5.219745094E0,-5.803836329E0,4.435820585E0,8.978126711E0
1.580748175E1,-5.358646286E0,-5.259933591E0,3.203452059E0,8.163583558E0
1.581753275E1,-4.613339714E0,-4.397865724E0,1.071946803E0,6.463218717E0
1.582758375E1,-3.035500730E0,-2.776162682E0,-8.695463832E-1,4.204456544E0
1.583763475E1,-1.613144180E0,-1.261979411E0,-2.078168271E0,2.917809031E0
1.584768475E1,-9.213863354E-1,-3.400512582E-1,-2.485968293E0,2.672943320E0
1.585773575E1,-5.432537697E-1,2.280115896E-1,-2.421647605E0,2.492286313E0
1.586778675E1,-2.209279802E-1,3.184253311E-1,-2.282729602E0,2.315395927E0
1.587783775E1,7.345316157E-2,1.037775528E-1,-2.161986938E0,2.165722204E0
1.588788775E1,3.550717320E-1,-4.692074811E-1,-2.301188092E0,2.375225933E0
1.589793875E1,6.306717633E-1,-1.343811779E0,-2.776891830E0,3.148762488E0
1.590798975E1,8.777009833E-1,-2.145705950E0,-3.214431961E0,3.963203990E0
1.591804075E1,1.262491774E0,-2.788243614E0,-3.508818219E0,4.656177963E0
1.592809075E1,1.889240932E0,-3.100479083E0,-3.781798990E0,5.242538073E0
1.593814175E1,2.833862129E0,-2.860638576E0,-4.052896957E0,5.713142863E0
1.594819275E1,3.889707016E0,-2.205176226E0,-4.125594220E0,6.083843401E0
1.595824375E1,4.722943725E0,-1.214754374E0,-3.901854022E0,6.245501615E0
1.596829375E1,5.154980164E0,-3.872318566E-2,-3.202185552E0,6.068715868E0
1.597834475E1,5.036914355E0,1.212814268E0,-2.226877144E0,5.639184913E0
1.598839575E1,4.408075547E0,2.474914132E0,-1.130220885E0,5.180128303E0
1.599844675E1,3.435291821E0,3.570501666E0,-1.782560237E-1,4.957972091E0
1.600849775E1,2.410143355E0,4.362851427E0,4.894366546E-1,5.008274334E0
1.601854775E1,1.523023822E0,4.802388967E0,8.732912325E-1,5.113235661E0
1.602859875E1,9.553435287E-1,4.971769356E0,9.571751690E-1,5.152412647E0
1.603864975E1,6.375757170E-1,4.934211520E0,8.509172273E-1,5.047475235E0
1.604870075E1,4.273417094E-1,4.758296283E0,6.833371961E-1,4.826070262E0
1.605875075E1,2.203906211E-1,4.598251559E0,6.036291218E-1,4.642936306E0
1.606880175E1,6.152491473E-2,4.534133331E0,5.531020157E-1,4.568158515E0
1.607885275E1,-3.503790490E-2,4.562947240E0,5.150345953E-1,4.592055727E0
1.608890375E1,-6.425381027E-2,4.596994407E0,6.436780174E-1,4.642284731E0
1.609895375E1,3.716270998E-3,4.609715025E0,1.048815218E0,4.727525757E0
1.610900475E1,1.742251725E-1,4.511937300E0,1.600777173E0,4.790659680E0
1.611905575E1,3.739021783E-1,4.204462634E0,2.142929546E0,4.733862685E0
1.612910675E1,5.466243240E-1,3.643166769E0,2.673279169E0,4.551690211E0
1.613915675E1,7.012536496E-1,3.008057992E0,3.313455727E0,4.529807769E0
1.614920775E1,7.825235883E-1,2.320496768E0,3.863086982E0,4.573892155E0
1.615925875E1,7.574236842E-1,1.652989739E0,4.024102929E0,4.415820433E0
1.616931008E1,6.389269354E-1,1.023895408E0,3.617103975E0,3.813139205E0
1.617936008E1,4.411273974E-1,2.961205423E-1,2.924722306E0,2.972588320E0
1.618941108E1,1.681806133E-1,-5.634412086E-1,2.224825941E0,2.301217326E0
1.619946208E1,-2.016540956E-1,-1.513321391E0,1.755535283E0,2.326523187E0
1.620951308E1,-5.692477861E-1,-2.832050954E0,1.585011764E0,3.294968579E0
1.621956308E1,-1.093549487E0,-4.868070155E0,1.499199196E0,5.209755824E0
1.622961408E1,-2.169215266E0,-7.938569979E0,1.403771467E0,8.348470669E0
1.623966508E1,-3.681758392E0,-1.117695389E1,1.229978185E0,1.183184218E1
1.624971608E1,-4.396057473E0,-1.166381061E1,1.819371675E0,1.259682152E1
1.625976608E1,-3.672000267E0,-8.939439636E0,3.254757868E0,1.019757892E1
1.626981708E1,-2.305641478E0,-4.981633024E0,3.976130325E0,6.778072187E0
1.627986808E1,-1.149398510E0,-2.499513368E0,3.170314718E0,4.197568275E0
1.628991908E1,-2.614971319E-1,-1.831925647E0,1.602180358E0,2.447716125E0
1.629996908E1,1.770537630E-1,-2.602369400E0,-2.526918098E-2,2.608507822E0
1.631002008E1,1.872199515E-1,-4.335359573E0,-1.441225222E0,4.572474613E0
1.632007108E1,3.389479252E-1,-4.789774184E0,-2.385154109E0,5.361509354E0
1.633012208E1,9.010892612E-1,-2.997088616E0,-2.849676801E0,4.232630376E0
1.634017208E1,1.030290142E0,-1.457367046E0,-3.470389148E0,3.902437357E0
1.635022308E1,1.063603265E0,-4.509045267E-1,-4.422383684E0,4.570781579E0
1.636027408E1,1.187075117E0,1.799843144E-1,-5.448241417E0,5.578967308E0
1.637032508E1,1.257722054E0,4.601080441E-1,-6.161178389E0,6.305052205E0
1.638037508E1,1.253267937E0,8.307267916E-1,-6.387786062E0,6.562362250E0
1.639042608E1,1.196071643E0,1.363392935E0,-6.033372288E0,6.300080066E0
1.640047708E1,1.023474116E0,1.932926942E0,-5.814118073E0,6.211897842E0
1.641052808E1,6.739231789E-1,2.548294349E0,-5.891766758E0,6.454524930E0
1.642057908E1,1.093616803E-1,3.028554237E0,-5.734509401E0,6.486038762E0
1.643062908E1,-3.427319873E-1,3.220566275E0,-4.949243542E0,5.914771676E0
1.644068008E1,-4.864236209E-1,3.308354031E0,-3.860029765E0,5.107019104E0
1.645073108E1,-4.177083851E-1,3.549104950E0,-2.934406464E0,4.623999085E0
1.646078208E1,-2.792922556E-1,3.845172282E0,-1.951880107E0,4.321248662E0
1.647083208E1,-2.596078234E-1,3.986478435E0,-1.284449676E0,4.196333817E0
1.648088308E1,-4.049003150E-1,3.987908079E0,-6.510077946E-1,4.060931699E0
1.649093408E1,-6.925132316E-1,3.889484822E0,8.257204056E-2,3.951516784E0
1.650098508E1,-8.844779793E-1,3.756009260E0,7.054863028E-1,3.922705416E0
1.651103508E1,-9.862364886E-1,3.592091925E0,1.173507969E0,3.905497121E0
1.652108608E1,-9.887067910E-1,3.352520975E0,1.587526212E0,3.838903161E0
1.653113708E1,-7.274749035E-1,3.247731854E0,1.930009181E0,3.847326003E0
1.654118808E1,-1.535680559E-1,3.305231034E0,2.042071069E0,3.888211618E0
1.655123808E1,3.466459673E-1,3.635591701E0,2.189666341E0,4.258207267E0
1.656128908E1,6.632408275E-1,3.891954685E0,2.464182737E0,4.653965646E0
1.657134008E1,1.025037881E0,3.735339938E0,2.768060195E0,4.760842820E0
1.658139108E1,1.503494268E0,3.323724607E0,3.077610623E0,4.772769366E0
1.659144108E1,1.837298069E0,2.933427640E0,3.281907660E0,4.769861612E0
1.660149208E1,1.722077515E0,2.447543315E0,3.361261393E0,4.500455244E0
1.661154308E1,9.862702563E-1,1.657641199E0,3.007587876E0,3.572966302E0
1.662159408E1,1.333174670E-1,8.310419565E-1,2.084930137E0,2.248407871E0
