"Time (s)","Linear Acceleration x (m/s^2)","Linear Acceleration y (m/s^2)","Linear Acceleration z (m/s^2)","Absolute acceleration (m/s^2)"
1.966875000E-2,-2.305479510E0,-9.855306566E-2,-2.805296434E0,3.632442231E0
2.962575000E-2,-1.688133551E0,-4.718819976E-2,-7.791356385E-1,1.859858585E0
3.958375000E-2,-1.754036057E-1,-2.801962352E-1,1.795328509E0,1.825508371E0
4.954075000E-2,4.641866232E-1,-9.107447684E-2,1.974457376E0,2.030331429E0
5.949775000E-2,8.931007951E-2,-8.215279520E-2,2.474494886E-1,2.756022886E-1
6.945474999E-2,-6.607980801E-1,7.647807240E-2,-1.562936186E0,1.698608995E0
7.941174999E-2,-1.245882319E0,1.541817212E-1,-2.383686458E0,2.694059369E0
8.936874999E-2,-1.495028962E0,-9.423431218E-2,-2.347416764E0,2.784664642E0
9.932674999E-2,-1.657951101E0,-2.271906406E-1,-2.672794434E0,3.153450099E0
1.092837500E-1,-1.776336314E0,-2.010214269E-2,-2.994879538E0,3.482108304E0
1.192407500E-1,-1.576430244E0,3.074658948E-1,-2.848649445E0,3.270240244E0
1.291977500E-1,-1.042707947E0,2.159727573E-1,-2.495464756E0,2.713158389E0
1.391547500E-1,-2.799888052E-1,-7.482623398E-2,-1.788103105E0,1.811437388E0
1.491117500E-1,1.987980232E-2,-8.485537827E-2,-9.074282277E-1,9.116038779E-1
1.590687500E-1,-2.908134632E-1,4.583199656E-1,-3.041189486E-1,6.221880713E-1
1.690267500E-1,-5.351871702E-1,1.080206434E0,-1.826518142E-1,1.219275576E0
1.789837500E-1,-9.267138067E-1,1.410602185E0,-1.589039326E-1,1.695242597E0
1.889407500E-1,-1.066330114E0,1.326156111E0,-5.528425455E-1,1.789241410E0
1.988977500E-1,-1.001014961E0,6.676286513E-1,-1.196929722E0,1.697174041E0
2.088547500E-1,-8.208654624E-1,6.542168927E-1,-5.757618767E-1,1.197214095E0
2.188117500E-1,-2.773360696E-1,1.549502208E0,1.662138877E0,2.289230882E0
2.287687500E-1,5.738758573E-1,2.662822008E0,3.962100808E0,4.808138659E0
2.387267500E-1,9.871637839E-1,3.296594111E0,5.515242323E0,6.500763259E0
2.486837500E-1,4.728233993E-1,3.054346306E0,5.862630082E0,6.627444817E0
2.586407500E-1,6.965495646E-4,2.067887696E0,5.484863698E0,5.861730956E0
2.685977500E-1,7.694307223E-2,7.455176568E-1,4.389548060E0,4.453071859E0
2.785547500E-1,3.849774626E-1,-1.776699865E-1,3.128477890E0,3.157079059E0
2.885117500E-1,5.808412068E-1,-1.638506770E-2,1.982746974E0,2.066139042E0
2.984697500E-1,2.225289479E-1,1.366557448E0,1.555134246E0,2.082172162E0
3.084267500E-1,-2.773587276E-1,2.785428765E0,1.443426699E0,3.149447873E0
3.183837500E-1,-7.503076959E-1,2.964013256E0,1.450807055E0,3.384254324E0
3.283407500E-1,-1.137487366E0,2.376410183E0,2.539886638E0,3.659539178E0
3.382977500E-1,-2.780409515E-2,8.960781974E-1,3.841804286E0,3.945020834E0
3.482547500E-1,2.224566763E0,-1.809915558E0,3.469131412E0,4.501040365E0
3.582127500E-1,3.960266244E0,-4.934489263E0,1.407747574E0,6.481870582E0
3.681697500E-1,4.690625579E0,-6.888726967E0,-1.463918266E0,8.461653753E0
3.781267500E-1,2.352453555E0,-5.614744391E0,-3.826421431E0,7.190333322E0
3.880837500E-1,-3.308490272E0,-1.830157449E0,-8.390477303E0,9.203026325E0
3.980407500E-1,-9.428756277E0,-5.121359843E-1,-1.024717176E1,1.393442705E1
4.079977500E-1,-1.349524509E0,-9.434086014E0,-6.919875669E0,1.177743073E1
4.179547500E-1,-1.085315731E0,-1.072255857E1,-5.287782710E0,1.200465820E1
4.279127500E-1,-2.677783571E0,-9.694321024E0,-3.944776677E0,1.080331653E1
4.378697500E-1,-2.609356822E0,-1.076109173E1,-3.413034394E0,1.158700315E1
4.478267500E-1,-2.733337090E0,-1.070460879E1,-2.905839892E0,1.142382101E1
4.577837500E-1,-2.082995147E0,-1.045358665E1,-3.305557308E0,1.115988583E1
4.677407500E-1,-1.344974790E0,-1.034807248E1,-4.288614008E0,1.128201096E1
4.776977500E-1,-7.512526059E-1,-1.082450361E1,-5.446700091E0,1.214087315E1
4.876547500E-1,6.896030724E-1,-1.101008956E1,-6.220211878E0,1.266446447E1
4.976127500E-1,-3.513550955E-1,-1.000289146E1,-6.261134201E0,1.180606155E1
5.075697500E-1,-9.313503563E-1,-9.578523935E0,-5.195926461E0,1.093678134E1
5.175267500E-1,-9.591263849E-1,-1.011105559E1,-4.172121685E0,1.097998033E1
5.274841250E-1,-3.747143712E0,-1.016250992E1,-3.585928375E0,1.140949500E1
5.374411250E-1,-4.491844513E0,-9.595386136E0,-3.257820640E0,1.108429057E1
5.473981250E-1,-5.437279058E0,-9.130233698E0,-4.574725286E0,1.156949793E1
5.573561250E-1,-5.595156804E0,-9.548846977E0,-4.598397739E0,1.198463683E1
5.673131250E-1,-3.923001646E0,-1.091678320E1,-4.777218457E0,1.254543397E1
5.772701250E-1,-4.331030295E0,-1.088378034E1,-4.526886876E0,1.255815284E1
5.872271250E-1,-3.383608282E0,-9.355305308E0,-1.800523760E0,1.011001623E1
5.971841250E-1,-2.074258237E0,-7.564546398E0,1.028214746E0,7.910887119E0
6.071411250E-1,-8.081980544E-1,-6.454853041E0,4.461699777E0,7.888287316E0
6.170991250E-1,1.314004428E0,-4.734589916E0,8.650518186E0,9.948588553E0
6.270561250E-1,3.963295979E0,-4.391814733E0,1.360157553E1,1.483235007E1
6.370131250E-1,6.229805405E0,-4.587725986E0,1.834564730E1,1.991031089E1
6.469701250E-1,8.005284956E0,-4.147536482E0,2.084770479E1,2.271372803E1
6.569271250E-1,7.771360077E0,-4.190308864E0,2.074082002E1,2.254183535E1
6.668841250E-1,9.833248529E0,-1.708230724E0,1.941133860E1,2.182683887E1
6.768411250E-1,1.168727782E1,4.442163937E0,1.714827903E1,2.122236455E1
6.867991250E-1,1.107795000E1,8.163832208E0,1.240865817E1,1.852954209E1
6.967561250E-1,8.525891216E0,9.010470443E0,1.005771261E1,1.596987732E1
7.067131250E-1,7.004093117E0,1.067196379E1,9.455385666E0,1.588560511E1
7.166701250E-1,7.561265525E0,1.233387111E1,9.252486699E0,1.717281640E1
7.266271250E-1,4.565429383E0,1.122421693E1,9.332385977E0,1.529443099E1
7.365841250E-1,2.645549918E0,1.166949644E1,9.942738812E0,1.555744634E1
7.465411250E-1,2.313696456E0,1.089961577E1,9.100183688E0,1.438638796E1
7.564991250E-1,1.524552138E0,1.103342463E1,7.915166498E0,1.366420795E1
7.664561250E-1,7.143473196E-1,1.132753957E1,6.521424760E0,1.309016523E1
7.764131250E-1,3.647387874E-1,1.132161400E1,4.415512036E0,1.215766115E1
7.863701250E-1,-3.297782850E0,1.309018858E1,2.899471105E0,1.380707577E1
7.963271250E-1,-4.267996725E0,1.239700350E1,9.516869724E-1,1.314561524E1
8.062841250E-1,-1.602608374E0,1.231886014E1,-1.423070202E0,1.250391129E1
8.162411250E-1,-2.093971540E0,1.392791566E1,-2.946534759E0,1.438935782E1
8.261991250E-1,-3.758535258E0,1.224518873E1,-4.432768339E0,1.355435980E1
8.361561250E-1,-2.631124252E0,1.098755205E1,-5.556442974E0,1.259059861E1
8.461131250E-1,4.282507176E0,1.191224710E1,-4.222167419E0,1.334421959E1
8.560701250E-1,3.924846443E0,9.910254021E0,-1.442920623E0,1.075637366E1
8.660271250E-1,2.506027751E0,6.137362679E0,-6.102639574E-1,6.657313110E0
8.759841250E-1,-1.282600202E0,4.630853879E0,1.277447051E-1,4.806889809E0
8.859421250E-1,-5.692422312E0,3.304091411E0,-4.846742436E-1,6.599666731E0
8.958991250E-1,-4.154484143E0,2.440878659E0,-1.320048987E0,4.996014056E0
9.058561250E-1,-1.566894751E0,2.713612093E0,-2.015911211E0,3.725955953E0
9.158131250E-1,-5.544148618E-1,2.697838059E0,-4.184308744E0,5.009405723E0
9.257701250E-1,-2.754270122E0,1.378368239E0,-8.267309799E0,8.822375769E0
9.357271250E-1,-3.627649428E0,-2.227381028E0,-1.208911836E1,1.281670197E1
9.456841250E-1,-1.552646255E0,-5.366749358E0,-1.292957843E1,1.408498163E1
9.556421250E-1,4.689521917E0,-7.384978405E0,-6.584485227E0,1.094919940E1
9.655991250E-1,7.022006646E0,-9.778815629E0,2.498591262E-1,1.204143854E1
9.755561250E-1,9.183613515E0,-1.234860142E1,5.663755753E0,1.639831831E1
9.855131250E-1,9.018315067E0,-1.262817317E1,1.221443121E1,1.974824281E1
9.954701250E-1,8.468584995E0,-1.226778588E1,1.570654861E1,2.165435687E1
1.005427125E0,9.107659353E0,-1.135149912E1,1.092384663E1,1.819715408E1
1.015384125E0,8.168218789E0,-9.621923724E0,-7.107889965E-1,1.264145701E1
1.025342125E0,7.292621049E0,-9.941026747E0,-9.110818019E0,1.533014480E1
1.035299125E0,1.013518471E1,-9.497108474E0,-1.771571857E0,1.400198219E1
1.045256125E0,1.261852059E1,-8.947861381E0,4.851077270E0,1.621185479E1
1.055213125E0,1.086331041E1,-5.339067469E0,4.382293712E0,1.287329222E1
1.065170125E0,6.431737243E0,-3.527529309E0,2.979045278E0,7.917412314E0
1.075127125E0,4.416775035E0,-4.616118311E0,1.700876681E0,6.611310872E0
1.085085125E0,3.172660037E0,-5.247678412E0,9.293003225E-1,6.202217306E0
1.095042125E0,2.548149338E0,-4.639460980E0,1.290908949E0,5.448312505E0
1.104999125E0,1.545311508E0,-3.186792757E0,2.996684573E0,4.639370018E0
1.114956125E0,4.295224285E-1,-1.333524773E0,3.890495805E0,4.135061722E0
1.124913125E0,-3.523017597E-1,1.159175420E-1,3.555502388E0,3.574793790E0
1.134870125E0,-1.917875040E0,1.289940212E0,1.710586567E0,2.875464627E0
1.144827125E0,-1.512923196E0,2.127653257E0,4.901918225E-1,2.656338269E0
1.154785125E0,-1.681594318E0,3.034262289E0,4.822560545E-1,3.502438863E0
1.164742125E0,-3.331526547E0,4.163820392E0,8.412598197E-1,5.398535679E0
1.174699125E0,-3.626722060E0,4.833141813E0,2.475701167E0,6.530043564E0
1.184656125E0,-4.904594788E0,6.242983859E0,3.166834456E0,8.547440434E0
1.194613125E0,-5.471083565E0,7.128813057E0,1.132990419E0,9.057394673E0
1.204570125E0,-4.828297979E0,8.162484425E0,-1.675205065E0,9.630416677E0
1.214527125E0,-4.769816467E0,1.040312986E1,-2.858492648E0,1.179606885E1
1.224485125E0,-3.709002324E0,1.065328076E1,-3.564174979E0,1.183014930E1
1.234442125E0,-3.127471585E0,9.097160093E0,-1.189612589E0,9.693016990E0
1.244399125E0,-3.996532722E0,9.798002098E0,3.895344901E-1,1.058890249E1
1.254356125E0,-3.961102688E0,8.858464471E0,-1.957337313E0,9.899186666E0
1.264313125E0,-3.724586908E0,6.320301007E0,-2.017791091E0,7.608563159E0
1.274270125E0,-1.585785935E0,7.539779931E0,-2.195577583E-1,7.707866375E0
1.284227125E0,-4.745963336E0,8.049016866E0,2.387192448E0,9.644144767E0
1.294185125E0,-9.926123364E0,9.625259560E-1,-1.154531561E0,1.003928904E1
1.304142125E0,-6.353511438E0,4.729524474E0,5.357560458E0,9.562372268E0
1.314099125E0,-6.021710601E0,5.863845134E0,1.463138248E0,8.531497632E0
1.324056125E0,-5.898494564E0,2.352091028E0,7.209008789E-1,6.390952074E0
1.334013125E0,-5.162987925E0,2.094745127E0,-4.694187995E0,7.285588679E0
1.343970125E0,-1.427847261E1,6.830868183E0,-1.965034471E1,2.523235200E1
1.353927125E0,-1.388982222E1,3.792919225E-1,-2.146168816E1,2.556707027E1
1.363885125E0,-1.083664477E-1,-7.021126056E0,-7.357379547E0,1.017049597E1
1.373842125E0,8.172822887E0,-5.880003914E0,2.463108019E0,1.036515225E1
1.383799125E0,7.963872051E0,-8.577282395E0,5.070743421E0,1.275560544E1
1.393756125E0,1.087401199E1,-1.347937107E1,4.059472736E0,1.778811119E1
1.403713125E0,1.113607133E1,-1.343296756E1,2.879025146E0,1.768461161E1
1.413670125E0,8.908966287E0,-9.831371573E0,1.022647612E0,1.330681613E1
1.423627125E0,7.703544654E0,-8.151396350E0,-1.350609167E0,1.129663701E1
1.433585125E0,2.278959902E0,-3.314475482E0,-3.414306749E0,5.276068283E0
1.443542125E0,1.571177251E0,-7.232472496E0,-1.835060340E0,7.625267393E0
1.453499125E0,1.733285458E0,-6.978700413E0,4.508187188E-1,7.204843888E0
1.463456125E0,3.795389673E0,-3.095365693E0,1.972928914E0,5.280030307E0
1.473413125E0,3.173458182E0,-1.478187811E0,2.848785101E0,4.513474558E0
1.483370125E0,-3.650555896E0,-1.903998427E0,5.019652789E0,6.492201667E0
1.493327125E0,-8.890714788E-1,2.380543579E0,7.354291048E0,7.780940345E0
1.503285125E0,9.162089914E-1,5.885183378E0,-8.488889743E-1,6.016264189E0
1.513242125E0,-1.412044108E-1,5.845849743E0,6.457407689E-1,5.883101142E0
1.523199250E0,-1.665719712E-1,6.529022048E0,1.081257178E0,6.620044728E0
1.533156250E0,2.392263739E0,6.460490341E0,-4.039787208E-1,6.901018769E0
1.543113250E0,2.210279092E0,5.359174290E0,1.394424547E0,5.962424217E0
1.553070250E0,1.582777542E0,5.344486084E0,1.869166418E0,5.878987953E0
1.563027250E0,-1.388304412E-1,5.658318427E0,1.031335405E0,5.753215973E0
1.572985250E0,-2.407199281E-1,3.490568474E0,2.323674583E0,4.200175940E0
1.582942250E0,-4.262129045E-1,4.007212077E0,2.768692864E0,4.889280749E0
1.592899250E0,-2.368526967E0,4.887245514E0,-9.185671735E-1,5.508071746E0
1.602856250E0,-3.809623550E0,5.843745330E0,-1.304631633E0,7.096805956E0
1.612813250E0,-5.456509380E0,4.605263540E0,-2.110697501E0,7.445602113E0
1.622770250E0,-5.209461011E0,3.279876922E0,-2.200298187E0,6.537383938E0
1.632727250E0,-5.819355424E0,2.375550642E0,-1.352133244E0,6.429339213E0
1.642685250E0,-6.585261737E0,2.061109604E0,-1.036300861E0,6.977661816E0
1.652642250E0,-6.322562710E0,1.720767739E0,-8.593962747E-1,6.608661195E0
1.662599250E0,-5.718786823E0,1.738688870E0,-1.592697051E0,6.185810021E0
1.672556250E0,-3.737639648E0,1.778133017E0,-6.157894592E0,7.419661244E0
1.682513250E0,-2.372287311E0,1.353640949E0,-8.475494649E0,8.904723491E0
1.692470250E0,-4.073264564E0,-3.680689521E0,-1.410838704E0,5.668282404E0
1.702427250E0,-2.105758358E0,-8.942035800E0,2.848891520E0,9.618232967E0
1.712385250E0,1.465657813E0,-8.421669275E0,-8.861306217E-1,8.594061536E0
1.722342250E0,1.527823071E0,-7.484586893E0,-1.368814766E0,7.760601662E0
1.732299250E0,3.104970329E0,-8.916254257E0,-3.687192795E-1,9.448618133E0
1.742256250E0,3.374703557E0,-1.079728365E1,-6.787228659E-1,1.133272355E1
1.752213250E0,2.308974829E0,-1.067239297E1,-1.317688466E0,1.099852897E1
1.762170250E0,1.355868153E0,-1.050902995E1,-1.656048417E-2,1.059614851E1
1.772127250E0,2.326156873E-1,-1.044038481E1,1.136787016E0,1.050466705E1
1.782085250E0,-4.435124767E-1,-9.872530124E0,1.217936721E0,9.957254854E0
1.792042250E0,1.001183653E-1,-8.308163710E0,3.517649853E-1,8.316209865E0
1.801999250E0,-4.628082883E-1,-6.990291349E0,-9.111800936E-1,7.064602877E0
1.811956250E0,5.963434911E-1,-5.056137076E0,-4.049182221E-1,5.107260171E0
1.821913250E0,2.754746670E0,-2.661167831E0,2.789545497E0,4.738354938E0
1.831870250E0,5.586322246E0,-2.052622370E0,7.176973064E0,9.323582851E0
1.841827250E0,9.453065491E0,-1.990041960E0,8.639989105E0,1.296032893E1
1.851785250E0,8.601393389E0,-4.205317497E-1,6.376685708E0,1.071554645E1
1.861742250E0,5.714113728E0,7.805167508E-1,3.401548416E0,6.695583151E0
1.871699250E0,3.522840719E0,1.857646964E0,5.425017446E-2,3.982989086E0
1.881656250E0,1.697315142E0,3.252195033E0,-2.041883081E0,4.198444682E0
1.891613250E0,-9.819167849E-1,4.147711313E0,-2.622774720E0,5.004659523E0
1.901570250E0,-2.063047371E0,4.744399790E0,-2.050273251E0,5.564990047E0
1.911527250E0,-1.434952329E0,5.397265976E0,-1.090828778E0,5.690296620E0
1.921484250E0,-7.869206214E-1,6.489160994E0,-5.776265538E-1,6.562172422E0
1.931442250E0,-5.354964879E-1,6.645310888E0,-1.104750998E-1,6.667767095E0
1.941399250E0,-2.370461226E-3,8.053955424E0,-2.064300429E0,8.314297316E0
1.951356250E0,3.916577895E0,7.000882410E0,-1.568758989E0,8.173918381E0
1.961313250E0,6.296016351E0,4.800641234E0,1.848452510E0,8.130360068E0
1.971270250E0,2.047722988E0,3.907461501E0,-2.029605975E0,4.855998892E0
1.981227250E0,-1.140794697E-1,2.144651113E0,-1.518010858E0,2.629999902E0
1.991184250E0,9.237431288E-2,2.156179483E0,-3.426386511E-1,2.185187457E0
2.001142250E0,8.159220801E-1,2.292888554E0,-8.289031912E-1,2.571020666E0
2.011099250E0,7.856744336E-1,2.956233535E0,-1.777978212E0,3.538051378E0
2.021056250E0,5.973296240E-1,4.451581171E0,-2.912946598E0,5.353376082E0
2.031013250E0,3.363245353E-2,5.243897018E0,-3.010985109E0,6.046951166E0
2.040970250E0,-5.624846041E-1,6.457131701E0,-2.355594680E0,6.896358824E0
2.050927250E0,-8.034011449E-1,7.563798539E0,-2.697808238E0,8.070605369E0
2.060884250E0,-1.902802379E-1,8.457867048E0,-3.116997467E0,9.015952240E0
2.070842250E0,1.067582295E0,7.628641237E0,-1.586673542E0,7.864695290E0
2.080799250E0,1.457309451E0,6.210646418E0,-5.974499305E-1,6.407247941E0
2.090756250E0,1.783487751E0,3.995559745E0,-6.098985795E-1,4.417839123E0
2.100713250E0,2.998067147E0,1.133528947E0,1.642843211E-1,3.209405526E0
2.110670250E0,5.047100204E0,-2.484070287E0,3.368121346E0,6.556528583E0
2.120627250E0,3.139149936E0,-4.675619577E0,4.088940364E0,6.959534040E0
2.130584250E0,3.986471418E0,-6.773952556E0,1.966381786E0,8.102162978E0
2.140541250E0,3.532496226E0,-7.307879359E0,-1.340261350E0,8.226781314E0
2.150499250E0,1.268533555E0,-1.085096343E1,-2.665462611E0,1.124532239E1
2.160456250E0,-1.931747851E0,-1.287253533E1,-3.116810356E0,1.338463008E1
2.170413250E0,-1.343882238E0,-9.048422381E0,-5.457643740E0,1.065203465E1
2.180370250E0,1.210217519E0,-7.116479525E0,-5.033803636E0,8.800459438E0
2.190327250E0,2.497510989E0,-5.481836595E0,-2.017949551E0,6.352968911E0
2.200284250E0,-2.375357684E0,-4.713635834E0,2.200535876E0,5.718657626E0
2.210241250E0,-3.530718673E0,-2.432254601E-1,2.752676171E0,4.483565442E0
2.220198250E0,-3.289255563E0,1.057486492E-1,1.979007825E0,3.840163657E0
2.230156250E0,-3.760976178E0,-3.348292269E0,1.314572192E0,5.204238943E0
2.240113250E0,-2.488704205E0,-3.801354418E0,-6.626374680E-1,4.591626340E0
2.250070250E0,-7.737924528E-1,-2.887159207E0,6.959845774E-1,3.069012477E0
2.260027250E0,-3.267842183E-1,-3.144155445E0,2.483073921E0,4.019721071E0
2.269984250E0,-9.260966331E-1,-2.911778909E-1,1.701058968E0,1.958581412E0
2.279941250E0,-1.211307148E0,3.912253295E0,3.242431645E-1,4.108299463E0
2.289898250E0,-1.549392280E0,6.126061766E0,-4.790502454E-1,6.337092261E0
2.299855250E0,-2.753880697E0,7.403954959E0,-2.088017905E0,8.170815547E0
2.309813250E0,-3.105960263E0,7.684204988E0,-3.685916348E0,9.070830986E0
2.319770250E0,-2.647491486E0,8.207115052E0,-2.770412530E0,9.057656112E0
2.329727250E0,-9.600420588E-1,7.420344704E0,-2.281074401E0,7.822179793E0
2.339684250E0,1.008306439E0,4.829800129E0,-2.703077749E0,5.625858199E0
2.349641250E0,3.003143408E0,1.819033706E0,-2.770379201E0,4.472443948E0
2.359598250E0,3.213213693E0,-1.272237182E-1,-1.599430997E0,3.591532769E0
2.369555250E0,2.911520462E0,-1.622516974E0,-7.453871177E-1,3.415423061E0
2.379512250E0,3.805703284E0,-1.739587587E-1,-8.818092370E-1,3.910399809E0
2.389470250E0,1.389459676E0,-2.596565453E0,1.290932046E0,3.215471333E0
2.399427250E0,-4.901215097E0,-1.380302498E0,6.878071586E0,8.557745799E0
2.409384250E0,-4.271931902E0,6.259265431E0,5.083399134E0,9.125171377E0
2.419341250E0,7.485666874E-1,4.379417174E0,5.887223764E-1,4.481767609E0
2.429298250E0,4.192457716E0,1.726927781E0,-9.286572750E-1,4.628324275E0
2.439255250E0,2.109149158E0,8.794247425E-1,-1.341593345E0,2.649862403E0
2.449212250E0,9.209402660E-1,2.485951336E0,-1.829543053E0,3.221073238E0
2.459169250E0,5.795494106E-1,3.096547415E0,-2.064554783E0,3.766546146E0
2.469127250E0,1.277311103E0,1.651778780E0,-2.239615450E0,3.061988595E0
2.479084250E0,4.070813996E0,-7.730796772E-1,-3.242172906E0,5.261260678E0
2.489041250E0,3.798963491E0,2.541246700E-1,-2.858841434E0,4.761268455E0
2.498998250E0,6.255735759E-1,-2.568371934E0,7.667193684E-1,2.752405362E0
2.508955250E0,-1.107348624E0,-1.310446163E1,9.700793892E0,1.634192577E1
2.518912250E0,-6.123035247E0,-6.723421503E0,7.523592499E0,1.180255911E1
2.528869000E0,-7.074390097E0,2.047711878E0,-2.481660649E-1,7.368969099E0
2.538826000E0,-5.092136629E0,6.119823956E0,-3.280028365E0,8.610498636E0
2.548784000E0,-4.256706337E0,6.754749130E0,-3.352990506E0,8.659603339E0
2.558741000E0,-4.329627548E0,5.843112661E0,-3.280048830E0,7.977866921E0
2.568698000E0,-4.767729011E0,2.433572563E0,-2.681034915E0,5.986774053E0
2.578655000E0,-5.231917242E0,-4.441041564E0,-1.710328412E0,7.072554806E0
2.588612000E0,-6.504637404E0,-1.853202613E1,-2.733504320E0,1.982973388E1
2.598569000E0,-5.473581496E0,-4.818993071E1,-7.338324641E0,4.905181469E1
2.608526000E0,-1.061941194E0,-4.322032599E1,-4.810763934E0,4.350020400E1
2.618483000E0,-5.486117342E0,-1.448542428E-1,2.335003710E0,5.964118423E0
2.628440000E0,-6.595982607E0,7.878682796E0,8.570661592E-1,1.031092583E1
2.638398000E0,-4.375933403E0,1.020574189E0,1.576602298E-1,4.496134069E0
2.648355000E0,-3.705247535E0,-3.044743423E0,-1.167572021E-2,4.795775029E0
2.658312000E0,-3.157817464E0,-1.582227904E0,3.939437293E-1,3.553934150E0
2.668269000E0,-2.237799304E0,-1.467306143E-1,7.395089118E-1,2.361387099E0
2.678226000E0,-1.769470660E0,8.534970188E-1,8.872189347E-1,2.155606879E0
2.688183000E0,-1.422173240E0,1.692358457E0,1.263433614E0,2.546157569E0
2.698140000E0,-1.103287440E0,2.210455678E0,1.810307906E0,3.062771979E0
2.708097000E0,-7.313858137E-1,3.378479689E0,6.343514161E-1,3.514463250E0
2.718055000E0,1.251702491E-1,6.224367494E0,3.194788532E-1,6.233817853E0
2.728012000E0,1.095936175E0,7.735747025E0,2.667268816E-1,7.817544459E0
2.737969000E0,1.010164391E0,6.515244838E0,9.767586637E0,1.178450661E1
2.747926000E0,-2.997282743E-3,7.980697414E0,7.128773881E0,1.070097927E1
2.757883000E0,7.267849320E-1,1.001716919E1,2.411584986E0,1.032897076E1
2.767840000E0,2.436452609E0,8.249554728E0,-7.922591293E-1,8.638236455E0
2.777797000E0,4.581961508E0,5.807510135E0,-1.376805278E0,7.524436059E0
2.787754000E0,4.984498159E0,3.685050960E0,-2.284578491E0,6.606369756E0
2.797711000E0,3.081971184E0,1.383506187E0,-7.940040554E0,8.628840000E0
2.807669000E0,2.017213971E0,8.355273557E-1,-8.023270991E0,8.315054754E0
2.817626000E0,1.946613520E0,3.001481044E0,-1.702389940E0,3.961858675E0
2.827583000E0,2.329144800E0,3.525603821E0,-5.251325905E-1,4.257999769E0
2.837540000E0,2.165787335E0,2.287428424E0,-3.673263265E-1,3.171418012E0
2.847497000E0,1.766033666E0,1.037234076E0,3.814197242E-1,2.083317174E0
2.857454000E0,2.346478871E0,7.557847828E-1,1.057512805E0,2.682444232E0
2.867411000E0,3.234752497E0,9.249909246E-1,1.692463707E0,3.766120726E0
2.877368000E0,3.419927969E0,3.156712925E-1,1.967411481E0,3.958063114E0
2.887325000E0,2.749299696E0,-1.977727139E-1,3.164896688E0,4.196943402E0
2.897283000E0,2.824425308E0,-2.855452681E-1,4.125089021E0,5.007521727E0
2.907240000E0,2.261684888E0,-6.184331024E-1,4.840802250E0,5.378758635E0
2.917197000E0,1.651075068E0,-9.183309460E-1,5.168595990E0,5.503068700E0
2.927154000E0,1.238927933E0,-1.364429646E0,4.938632015E0,5.271308838E0
2.937111000E0,7.968331137E-1,-1.293102971E0,5.445191510E0,5.653067210E0
2.947068000E0,7.945986003E-1,-1.522022048E0,6.027347317E0,6.267124837E0
2.957025000E0,1.324729975E0,-1.783684949E0,5.934472482E0,6.336750362E0
2.966982000E0,2.197814290E0,-2.386716485E0,5.522331487E0,6.404915947E0
2.976939000E0,3.024791554E0,-2.387377220E0,4.960799979E0,6.281597756E0
2.986897000E0,3.936293537E0,-8.597722507E-1,4.427543267E0,5.986380752E0
2.996854000E0,4.755630537E0,1.705066795E0,3.614261059E0,6.211775719E0
3.006811000E0,5.647094697E0,1.313402165E0,3.092639136E0,6.571082147E0
3.016768000E0,5.813164977E0,-2.879636765E-2,2.651749721E0,6.389482988E0
3.026725000E0,4.588859176E0,-2.975947423E0,1.492494194E0,5.669341277E0
3.036682000E0,2.097228147E0,-5.201379574E0,9.777801722E-1,5.692870053E0
3.046639000E0,6.936224484E-1,-2.020901810E0,-1.540624380E-2,2.136678165E0
3.056596000E0,9.412833139E-1,-1.499821340E0,1.479241772E-1,1.776896140E0
3.066553000E0,7.567826101E-1,1.196638530E0,7.375726064E-1,1.596457654E0
3.076511000E0,-5.834410250E-1,-2.401630393E0,-2.645980565E-1,2.485607392E0
3.086468000E0,-6.420229923E0,-7.681486033E0,-4.969257684E-1,1.002354803E1
3.096425000E0,-7.788982415E0,-8.433785291E0,2.660872546E0,1.178461811E1
3.106382000E0,-8.015473144E0,-9.006744597E0,3.333511092E0,1.250925874E1
3.116339000E0,-7.419216192E0,-9.299604732E0,1.916100994E0,1.204984897E1
3.126296000E0,-6.584853601E0,-9.668605555E0,7.550122194E-1,1.172229814E1
3.136253000E0,-6.095512403E0,-1.188507626E1,1.285042584E-1,1.335765034E1
3.146210000E0,-7.378553485E0,-1.251015063E1,-1.050583270E0,1.456195885E1
3.156167000E0,-6.937452400E0,-1.033633829E1,-2.821201153E0,1.276429829E1
3.166124000E0,-4.147697865E0,-6.604442943E0,-4.306027601E0,8.908643997E0
3.176082000E0,-2.213305026E0,-2.418191462E0,-4.408589517E0,5.493817490E0
3.186039000E0,5.732662851E-1,3.479800826E-1,-3.378178557E0,3.444098537E0
3.195996000E0,2.411347881E0,3.061378167E0,-3.989861926E0,5.577242426E0
3.205953000E0,3.368823304E0,5.334348181E0,-5.467032030E0,8.348214192E0
3.215910000E0,4.320106234E0,5.287396794E0,-5.019839315E0,8.474589635E0
3.225867000E0,3.165806515E0,4.242066078E0,-2.424538030E0,5.822013411E0
3.235824000E0,8.081159011E-1,6.092833208E0,8.227836415E-1,6.201019330E0
3.245781000E0,-3.983391543E-1,6.214048913E0,5.316911200E-1,6.249461850E0
3.255738000E0,-1.274148636E0,5.027569919E0,-3.796288683E0,6.427419529E0
3.265695000E0,-2.385490616E0,6.214233100E0,-4.667922595E0,8.129991381E0
3.275653000E0,-3.014512734E0,7.364218451E0,-2.809107942E0,8.438606985E0
3.285610000E0,-3.836534775E0,7.650618582E0,-1.729466349E0,8.731667517E0
3.295567000E0,-3.227190000E0,8.534350968E0,-1.233435059E0,9.207131138E0
3.305524000E0,-3.020621905E0,8.960100188E0,-2.496390955E0,9.779545995E0
3.315481000E0,-2.374503113E0,8.441919352E0,-3.152148589E0,9.318814738E0
3.325438000E0,-1.434932449E0,8.082153622E0,-3.188141710E0,8.805934695E0
3.335395000E0,-1.894864930E0,7.487922145E0,-3.257833211E0,8.382897374E0
3.345352000E0,-2.170908619E0,6.548331892E0,-1.715828888E0,7.108977675E0
3.355309000E0,-2.516632554E0,6.361554868E0,-2.361808223E0,7.237469021E0
3.365266000E0,-2.846837101E0,5.754303396E0,-2.288602545E0,6.815731117E0
3.375224000E0,-2.752455439E0,5.298428736E0,-2.339412510E0,6.412660049E0
3.385181000E0,-1.699538107E0,3.985721220E0,-1.710497397E0,4.658347858E0
3.395138000E0,-1.823870815E-2,1.958780991E0,-1.287733765E0,2.344229910E0
3.405095000E0,2.140503975E0,3.886597466E-1,-3.228540123E-1,2.199329075E0
3.415052000E0,5.001014205E0,-1.033928645E0,1.865003054E0,5.436670664E0
3.425009000E0,7.196384066E0,-5.453150155E0,3.764423111E0,9.782416450E0
3.434966000E0,8.920274802E0,-9.427881534E0,4.699870319E0,1.380380505E1
3.444923000E0,8.609750229E0,-1.037438495E1,3.035357181E0,1.381915538E1
3.454880000E0,6.122241195E0,-8.284370804E0,1.240080712E0,1.037547286E1
3.464837000E0,1.933719825E0,-6.323633920E0,2.347941844E0,7.017153926E0
3.474794000E0,-9.897298345E-1,-4.586057190E0,3.932277085E0,6.121624684E0
3.484752000E0,-8.521047968E-1,-3.273665425E0,5.851235029E0,6.758692126E0
3.494709000E0,1.380198710E-1,-1.742230529E0,6.831491497E0,7.051502873E0
3.504666000E0,2.647903130E0,5.213529503E-1,5.802624786E0,6.399504222E0
3.514623000E0,4.186676574E0,3.488642986E0,3.715793573E0,6.595908769E0
3.524579875E0,2.143789379E0,6.881607397E0,7.991269764E-1,7.251962300E0
3.534536875E0,-1.205692067E0,9.006739919E0,-2.157070599E0,9.339593722E0
3.544493875E0,-4.423949276E-1,6.597171931E0,-1.885120399E0,6.875468688E0
3.554450875E0,-2.044757719E0,1.614049037E0,-1.408275285E0,2.961321951E0
3.564407875E0,-3.902582292E0,-6.411692988E0,-1.871205488E0,7.735720102E0
3.574364875E0,-6.058472630E0,-1.471141215E1,-2.433904977E0,1.609517417E1
3.584321875E0,-7.657663307E0,-1.889377582E1,-3.485521450E0,2.068244259E1
3.594279875E0,-3.980400254E0,-1.751607358E1,-1.294575007E0,1.800922941E1
3.604236875E0,7.197267580E-1,-1.239488096E1,-1.220498094E0,1.247560404E1
3.614193875E0,-1.708565184E0,-4.546376231E0,-5.112917633E0,7.051996777E0
3.624150875E0,-3.566968194E0,-6.860023570E-1,-5.749549609E0,6.800822159E0
3.634107875E0,-4.871851842E0,9.398568857E-1,-3.743195087E0,6.215286059E0
3.644064875E0,-6.562509636E0,3.200440743E0,-5.325734648E-1,7.320723200E0
3.654021875E0,-6.795437565E0,3.745709390E0,1.500475351E0,7.903147273E0
3.663978875E0,-5.895894892E0,1.858360909E0,2.422711067E0,6.639624294E0
3.673935875E0,-4.107815176E0,-2.907829700E0,2.903943932E0,5.810551561E0
3.683892875E0,-2.430796597E0,-7.313012044E0,1.051919943E0,7.777882284E0
3.693849875E0,-1.398502541E0,-7.694577949E0,3.063356280E-2,7.820695467E0
3.703807875E0,-3.619577786E-1,-5.464695482E0,-1.460321936E0,5.668019963E0
3.713764875E0,-4.815972195E-1,-2.907054359E0,-2.597203092E0,3.927895725E0
3.723721875E0,-1.281853513E0,-1.186978346E0,-2.110684783E0,2.739900778E0
3.733678875E0,-1.847795868E0,6.286516964E-1,-2.595111251E0,3.247176455E0
3.743635875E0,-2.413117248E0,3.462557387E0,7.489678064E-1,4.286419402E0
3.753592875E0,-1.674854524E0,6.542559521E0,5.649178644E0,8.804739753E0
3.763549875E0,-1.581563953E0,7.403727502E0,4.495095272E0,8.804680969E0
3.773506875E0,-2.562556585E0,4.351071042E0,1.980467144E0,5.424091221E0
3.783463875E0,-2.274978825E0,3.047174696E0,-1.131007043E0,3.967364265E0
3.793420875E0,-6.497837531E-1,2.552525395E0,-2.275434762E0,3.480690761E0
3.803377875E0,-9.720308974E-1,9.694215775E-1,-2.835240026E0,3.150112421E0
3.813334875E0,-1.731642683E0,1.505418295E0,-1.504059402E0,2.743549764E0
3.823292875E0,-1.358096673E0,2.957952617E0,-5.266214378E-1,3.297156411E0
3.833249875E0,-4.525790231E-1,3.915279229E0,-9.278230235E-2,3.942441853E0
3.843206875E0,6.391297607E-1,4.407602507E0,4.322681348E-1,4.474628751E0
3.853163875E0,1.349957787E0,4.353269595E0,6.273255479E-1,4.600747715E0
3.863120875E0,1.165218225E0,4.353476586E0,4.673784721E-1,4.530886727E0
3.873077875E0,1.435659112E0,4.083487836E0,6.724191289E-1,4.380426631E0
3.883034875E0,2.048134047E0,3.931363165E0,2.598947024E-1,4.440497119E0
3.892991875E0,2.616540712E0,3.639856660E0,-3.629297320E-1,4.497394778E0
3.902948875E0,3.509492110E0,2.621279295E0,-4.589895449E-1,4.404351418E0
3.912905875E0,3.082311784E0,1.497992916E0,-4.148026844E-1,3.452055906E0
3.922862875E0,3.403620670E0,7.158430374E-1,-2.473547637E-2,3.478171468E0
3.932819875E0,3.864630647E0,5.132007623E-1,9.320110917E-1,4.008414865E0
3.942777875E0,3.756091414E0,1.691097212E0,2.523178219E0,4.830575620E0
3.952734875E0,4.104933961E0,3.291018791E0,4.486475015E0,6.914459166E0
3.962691875E0,4.165344762E0,4.743497565E0,5.501915349E0,8.373884322E0
3.972648875E0,3.247599122E0,4.771951870E0,5.638584659E0,8.069204525E0
3.982605875E0,1.227415642E0,3.502687998E0,5.305913172E0,6.475190110E0
3.992562875E0,-1.664730655E0,1.859039771E0,4.483114035E0,5.130854556E0
4.002519875E0,-2.572858795E0,-9.101612163E-1,5.766306560E0,6.379520919E0
4.012476875E0,-2.522963919E0,-1.849177857E0,6.289337661E0,7.024284583E0
4.022433875E0,-1.499887998E0,-1.530397600E0,5.921237894E0,6.297050025E0
4.032390875E0,-3.881908000E-2,-1.244265271E0,4.942118125E0,5.096492377E0
4.042347875E0,1.634218130E0,-1.416281585E0,4.323547028E0,4.834209483E0
4.052304875E0,3.142202183E0,-1.389286745E0,4.438723143E0,5.613004130E0
4.062262875E0,4.784081334E0,-1.020481803E0,4.770822773E0,6.832976457E0
4.072219875E0,5.962004682E0,-1.925955892E-1,4.941515862E0,7.746042338E0
4.082176875E0,6.311619061E0,3.255203426E-2,4.353037460E0,7.667237439E0
4.092133875E0,5.684656041E0,-7.659998685E-1,4.269842691E0,7.150778049E0
4.102090875E0,4.452593324E0,-2.221237358E0,3.819073820E0,6.272543946E0
4.112047875E0,2.960315477E0,-3.233080485E0,2.814029835E0,5.209130548E0
4.122004875E0,1.443863632E0,-3.764415218E0,1.679364190E0,4.367588373E0
4.131961875E0,-1.898128992E-1,-4.803951343E0,-3.422375321E-1,4.819865555E0
4.141918875E0,-2.523117993E0,-5.884006333E0,-1.825998471E0,6.657471393E0
4.151875875E0,-5.572194203E0,-7.410574007E0,-7.544527870E-1,9.302427337E0
4.161832875E0,-7.705610476E0,-8.982530107E0,1.756516446E0,1.196443187E1
4.171789875E0,-9.044041062E0,-9.998558671E0,3.762409038E0,1.399719886E1
4.181746875E0,-8.498141500E0,-1.041726492E1,3.810942390E0,1.397358577E1
4.191703875E0,-6.525693812E0,-1.159356800E1,2.105143815E0,1.346948883E1
4.201660875E0,-5.475820395E0,-1.119856169E1,-5.173353285E-2,1.246575586E1
4.211618875E0,-4.891890835E0,-1.138326705E1,-1.780373378E0,1.251715199E1
4.221575875E0,-3.694564379E0,-1.035701170E1,-3.394821195E0,1.150835819E1
4.231532875E0,-2.360227429E0,-7.543526242E0,-3.510949236E0,8.648828026E0
4.241489875E0,-1.102031751E0,-4.513247661E0,-3.120094737E0,5.596326438E0
4.251446875E0,-2.727813810E-1,-1.437389449E0,-3.578328749E0,3.865867916E0
4.261403875E0,1.751866155E0,2.054458396E0,-4.598264130E0,5.332341637E0
4.271360875E0,5.468154110E0,6.080574521E0,-4.666602294E0,9.415480489E0
4.281317875E0,6.628591944E0,7.691722169E0,-3.045032861E0,1.060061537E1
4.291274875E0,5.342199238E0,4.668853179E0,-2.446779084E0,7.504932418E0
4.301231875E0,1.894863322E0,3.663047887E0,-7.412480199E-1,4.190211863E0
4.311188875E0,-4.207416648E-1,4.439918899E0,-2.715927590E0,5.221701452E0
4.321145875E0,-2.035163461E0,5.918686169E0,-5.192808141E0,8.132526832E0
4.331102875E0,-2.236422139E0,7.358133838E0,-6.011471542E0,9.761224701E0
4.341059875E0,-1.924419828E0,8.595885896E0,-4.496441301E0,9.889925702E0
4.351016875E0,-2.357979174E0,9.220810577E0,-3.231954604E0,1.005131554E1
4.360974875E0,-3.686300510E0,8.432698293E0,-2.827428730E0,9.627749746E0
4.370931875E0,-4.706644319E0,7.420991406E0,-2.484614078E0,9.132191485E0
4.380888875E0,-5.072534423E0,5.472126124E0,-2.484927781E0,7.864453946E0
4.390845875E0,-4.511858947E0,4.735853500E0,-2.849551378E0,7.134782589E0
4.400802875E0,-4.204079057E0,5.268507364E0,-3.014160439E0,7.383536667E0
4.410759875E0,-4.109039583E0,5.640093825E0,-2.820018261E0,7.526444556E0
4.420716875E0,-3.727666052E0,5.676604425E0,-2.584105037E0,7.266149657E0
4.430673875E0,-3.263743284E0,4.920675800E0,-2.590613573E0,6.447972491E0
4.440630875E0,-2.701037071E0,4.122418597E0,-2.620750999E0,5.581959526E0
4.450587875E0,-1.500611445E0,4.429120261E0,-2.643879661E0,5.372061118E0
4.460544875E0,-8.608577862E-2,3.736632757E0,-2.913286614E0,4.738889534E0
4.470501875E0,2.475386587E0,5.231223178E-1,-2.855272294E0,3.814941099E0
4.480458875E0,5.497843348E0,-2.617107307E0,-1.939458282E0,6.390385791E0
4.490415875E0,5.597464115E0,-4.107585381E0,1.042236662E0,7.020692233E0
4.500372875E0,4.519959095E0,-4.770226942E0,5.857083414E0,8.802870067E0
4.510329875E0,3.267832242E0,-5.622892486E0,8.626337026E0,1.080320961E1
4.520286875E0,1.825388314E0,-6.381752905E0,4.817548750E0,8.201682059E0
4.530244542E0,2.736299582E-1,-6.153907961E0,1.184736815E0,6.272882740E0
4.540201542E0,-1.209613502E0,-5.457306941E0,3.396875614E-1,5.600067098E0
4.550158542E0,1.260279626E-1,-3.939591951E0,4.096677985E0,5.684983580E0
4.560115542E0,1.568069602E0,-2.320143596E0,7.753298028E0,8.243514959E0
4.570072542E0,3.301405200E0,-3.080096859E-1,7.885203027E0,8.553979953E0
4.580029542E0,5.255658692E0,1.984921553E0,5.359328071E0,7.764293866E0
4.589986542E0,4.865338921E0,3.984876298E0,2.343039538E0,6.711229113E0
4.599943542E0,1.236979641E0,2.459220790E0,-1.283795373E0,3.037435774E0
4.609900542E0,-2.443388284E0,-3.630401128E0,-4.504786448E0,6.280370976E0
4.619857542E0,-5.818654928E0,-1.007312587E1,-3.191238687E0,1.206269515E1
4.629814542E0,-7.027716452E0,-1.306245991E1,-3.944838658E0,1.534856376E1
4.639771542E0,-4.378702644E0,-1.302734621E1,-6.023236724E0,1.500547123E1
4.649728542E0,3.993564091E0,-1.256409237E1,-2.589099728E0,1.343534177E1
4.659685542E0,4.775654912E0,-9.209026099E0,-2.547212907E0,1.068182265E1
4.669642542E0,-5.363041053E0,-1.620992020E0,-5.189205086E0,7.636600939E0
4.679599542E0,-8.488434538E0,-7.108810902E-1,-3.371085300E0,9.160954586E0
4.689556542E0,-8.553942064E0,-1.493799877E-1,-1.527239226E0,8.690494743E0
4.699513542E0,-8.397166518E0,1.914355016E0,-4.293411648E-1,8.623311110E0
4.709470542E0,-7.824206042E0,1.826029315E0,5.801443648E-1,8.055380235E0
4.719428542E0,-7.475897931E0,-2.901400101E-1,3.917938542E-1,7.491777728E0
4.729385542E0,-5.930230327E0,-2.801688117E0,5.039662546E-1,6.578074948E0
4.739342542E0,-3.959488272E0,-4.223373114E0,1.578457035E0,6.000496184E0
4.749299542E0,-1.971705092E0,-4.762779343E0,1.172842702E0,5.286515681E0
4.759256542E0,-7.048698601E-1,-3.832959788E0,-1.068262911E0,4.040990955E0
4.769213542E0,4.969847522E-1,-1.956215817E0,-1.456328288E0,2.488908646E0
4.779170542E0,2.054673866E0,3.897350496E-1,2.989397773E-1,2.112567891E0
4.789127542E0,1.957193472E0,2.659931145E0,3.889117616E-1,3.325220645E0
4.799084542E0,1.082109848E-1,4.263816551E0,7.696260193E-1,4.334070305E0
4.809041542E0,-1.189589712E0,5.180091616E0,1.650929765E0,5.565432770E0
4.818998542E0,-2.879773589E0,5.068457159E0,2.265913448E0,6.254335909E0
4.828955542E0,-3.695520399E0,4.154300541E0,3.362427328E0,6.497768966E0
4.838912542E0,-2.375675480E0,2.606008707E0,2.923409021E-1,3.538442958E0
4.848869542E0,-1.577151936E0,6.416944957E-1,-2.724053173E0,3.212420543E0
4.858826542E0,-3.578499780E0,2.741800350E-1,-1.003236172E0,3.726569224E0
4.868783542E0,-3.259688240E0,1.677948579E0,-1.228611106E-1,3.668265763E0
4.878740542E0,-1.024681785E0,2.633950211E0,1.019278300E0,3.004429186E0
4.888697542E0,4.998118810E-1,3.510035609E0,1.562487558E0,3.874471482E0
4.898654542E0,3.080629540E0,3.158369442E0,2.378222820E0,5.012137236E0
4.908611542E0,3.600498175E0,2.892467895E0,1.701561974E0,4.921917389E0
4.918568542E0,2.996614407E0,3.181059562E0,2.092028511E-1,4.375226128E0
4.928526542E0,2.309888311E0,3.311074741E0,-5.189623162E-2,4.037510764E0
4.938483542E0,1.915693590E0,3.206400810E0,-1.824940856E-1,3.739544381E0
4.948440542E0,1.976260365E0,2.808748046E0,-3.668227351E-1,3.453871673E0
4.958397542E0,1.904234947E0,2.724623569E0,-7.724961251E-1,3.412687298E0
4.968354542E0,2.554393872E0,2.145393709E0,-5.931590974E-1,3.388138122E0
4.978311542E0,3.055198245E0,2.094234665E0,3.090458125E-1,3.716929440E0
4.988268542E0,3.401104028E0,1.919535064E0,2.018534857E0,4.396203640E0
4.998225542E0,3.446300958E0,2.766882566E0,3.703841572E0,5.766374235E0
5.008182542E0,3.239648078E0,3.180201191E0,4.624497371E0,6.480353016E0
5.018139542E0,2.877204323E0,3.133783654E0,4.975048474E0,6.545992058E0
5.028096542E0,2.517346791E0,3.006376918E0,4.996476181E0,6.351386562E0
5.038053542E0,1.235844111E0,2.464491470E0,5.238624583E0,5.919815571E0
5.048010542E0,-4.477578476E-1,1.206001092E0,5.458964041E0,5.608494819E0
5.057967542E0,-1.134472688E0,-6.850656331E-2,5.467615582E0,5.584491166E0
5.067924542E0,-1.193000393E0,-7.387021422E-1,5.018224314E0,5.210710706E0
5.077881542E0,-4.624859606E-1,-9.681883997E-1,4.509779677E0,4.635665516E0
5.087838542E0,8.208499673E-1,-1.845087730E0,3.973649644E0,4.457357389E0
5.097795542E0,2.667766414E0,-2.146283070E0,3.858995100E0,5.159006866E0
5.107752542E0,4.321257259E0,-1.526086448E0,4.259040545E0,6.256327238E0
5.117709542E0,5.190230103E0,-3.811612773E-1,4.762772326E0,7.054627749E0
5.127666542E0,5.552773261E0,1.270456704E0,5.018593858E0,7.591681990E0
5.137623542E0,6.167453620E0,2.817499573E0,4.887527350E0,8.358451508E0
5.147580542E0,6.502645258E0,2.696107283E0,4.016669948E0,8.104753377E0
5.157537542E0,5.070472695E0,1.401128526E0,3.675386682E0,6.417267468E0
5.167494542E0,2.672493303E0,-3.810490108E-1,2.785650374E0,3.879080666E0
5.177451542E0,1.141852313E0,-2.145429377E0,1.652298598E0,2.938840685E0
5.187408542E0,-1.684930008E-1,-3.762976218E0,2.299592241E-1,3.773759551E0
5.197365542E0,-3.539847638E0,-4.291717125E0,-1.582820373E0,5.784001860E0
5.207323542E0,-5.764323184E0,-5.028059331E0,-6.478083444E-1,7.676487352E0
5.217280542E0,-7.987812306E0,-6.741087111E0,1.360750724E0,1.054035310E1
5.227237542E0,-9.306881592E0,-1.057747629E1,3.509792365E0,1.451963127E1
5.237194542E0,-9.229757987E0,-1.756293550E1,4.713138821E0,2.039261664E1
5.247151542E0,-7.073745734E0,-2.064497480E1,2.322795016E0,2.194648582E1
5.257108542E0,-2.200019859E0,-1.424545221E1,-9.101922065E-3,1.441433588E1
5.267065542E0,-1.430575981E0,-8.119354777E0,-1.173182717E0,8.327474246E0
5.277022542E0,-3.050958721E0,-6.817043027E0,-1.872890363E0,7.699879418E0
5.286979542E0,-2.524450573E0,-5.708994491E0,-1.942443870E0,6.537473288E0
5.296936542E0,-9.273602164E-1,-3.107303953E0,-2.065350004E0,3.844607323E0
5.306893542E0,1.362366456E0,-4.839424646E-1,-2.581210080E0,2.958528038E0
5.316850542E0,1.978674973E0,1.247071935E0,-4.470560063E0,5.045418747E0
5.326807542E0,1.720706635E0,2.919108394E0,-5.439220333E0,6.408365078E0
5.336764542E0,3.153871179E0,4.127223254E0,-5.263196923E0,7.394735766E0
5.346721542E0,2.609582525E0,3.921530487E0,-4.782713963E0,6.712873838E0
5.356678542E0,-5.770657327E-1,3.340997867E0,-2.089177116E0,3.982453092E0
5.366635542E0,-2.075038841E0,4.098171363E0,-9.743756309E-1,4.695764324E0
5.376592542E0,-1.476681276E0,4.638704351E0,-1.900360875E0,5.225852763E0
5.386549542E0,-2.173762499E0,6.799618909E0,-5.764626655E0,9.175564352E0
5.396506542E0,-1.408004120E0,7.826400502E0,-6.636521938E0,1.035753078E1
5.406463542E0,-1.676032738E0,6.780071082E0,-4.910005801E0,8.537365319E0
5.416420542E0,-2.247584474E0,6.676477132E0,-4.279603449E0,8.242693039E0
5.426377542E0,-2.431129889E0,7.568951690E0,-2.947876110E0,8.478761453E0
5.436334542E0,-2.980968427E0,4.915891024E0,-2.322906405E0,6.200649280E0
5.446291542E0,-3.299755116E0,1.468513008E0,-2.618601855E0,4.461164641E0
5.456248542E0,-2.256480428E0,1.227008384E0,-2.899348021E0,3.873431610E0
5.466205542E0,-1.916475947E0,2.109629214E0,-2.900653119E0,4.066596119E0
5.476162542E0,-2.035216086E0,3.332694821E0,-2.948801140E0,4.893300261E0
5.486119542E0,-2.019207872E0,3.817597983E0,-3.464569999E0,5.536650618E0
5.496076542E0,-2.322161324E0,4.095871069E0,-3.723372734E0,6.002674199E0
5.506033542E0,-2.369955588E0,4.364227277E0,-2.539924937E0,5.578027241E0
5.515990542E0,-5.545566568E-1,3.966703736E0,-1.391645511E0,4.240159059E0
5.525951875E0,2.565099832E0,1.951379585E0,-4.034555411E-1,3.248137283E0
5.535908875E0,5.012741965E0,-1.547085553E-1,1.353137211E0,5.194467928E0
5.545865875E0,4.282341115E0,-2.970356315E-1,5.141874214E0,6.698174828E0
5.555822875E0,1.288639645E0,-5.595200658E-3,7.826376529E0,7.931758507E0
5.565779875E0,-2.646813793E-1,-1.176186724E0,6.026859659E0,6.146259740E0
5.575736875E0,-6.279292729E-1,-3.820574216E0,2.042578608E0,4.377580368E0
5.585693875E0,-1.773339178E0,-7.357332185E0,3.745141625E-1,7.577290385E0
5.595650875E0,-2.099185503E0,-6.970727735E0,4.347765611E0,8.479427500E0
5.605607875E0,-1.806482658E-1,-2.556089272E0,7.191270676E0,7.634173177E0
5.615564875E0,1.311422590E0,3.458926266E-1,6.510131448E0,6.649908450E0
5.625521875E0,2.448873849E0,2.478827673E0,3.530711364E0,4.960593966E0
5.635478875E0,1.378072662E0,4.923799383E0,-2.838209242E-2,5.113090080E0
5.645435875E0,1.478355626E0,2.670854913E0,-1.653010204E0,3.471518984E0
5.655392875E0,-7.869051263E-1,-2.130850514E0,-1.907827477E0,2.966403424E0
5.665349875E0,-3.281108930E0,-8.330457973E0,1.212227207E0,9.035026323E0
5.675306875E0,-4.011619123E0,-1.154115239E1,-1.503745991E0,1.231066767E1
5.685263875E0,-3.332073846E-1,-1.262338430E1,-8.310261691E0,1.511692124E1
5.695220875E0,8.825515995E0,-1.426557131E1,-4.283371102E0,1.731310271E1
5.705177875E0,4.176632227E0,-1.114562217E1,-1.544267488E0,1.200224614E1
5.715134875E0,-5.215042178E0,-4.829793697E0,-3.722316142E0,8.023665592E0
5.725091875E0,-7.090496253E0,-2.735112305E0,-3.168350639E0,8.233736831E0
5.735048875E0,-8.186524667E0,-1.593472100E0,-1.345347550E0,8.447976059E0
5.745005875E0,-8.812436943E0,1.574432981E-1,1.805231354E-1,8.815691798E0
5.754962875E0,-9.691052431E0,5.343823010E-1,6.569262001E-1,9.727980967E0
5.764919875E0,-7.725637774E0,-1.200999969E0,1.227777585E0,7.914247768E0
5.774876875E0,-3.566553041E0,-5.554024565E0,1.697827650E0,6.815431622E0
5.784833875E0,-1.224575796E0,-7.982556244E0,6.974017963E-1,8.105995271E0
5.794791875E0,-2.513285315E-1,-6.714001054E0,2.091829705E-1,6.721959067E0
5.804748875E0,5.637695298E-1,-5.073435479E0,7.283537400E-1,5.156363332E0
5.814704875E0,-1.346657619E-2,-2.795491238E0,-5.703650428E-1,2.853115647E0
5.824662875E0,-1.327654314E0,3.452564496E-1,-2.557801630E-1,1.395453864E0
5.834618875E0,-7.312523510E-1,1.398887288E0,-2.448919311E0,2.913558209E0
5.844576875E0,-1.339954956E0,3.265672866E0,-1.480838500E0,3.827921265E0
5.854533875E0,-1.820135322E0,4.437353141E0,1.236414215E0,4.952950191E0
5.864490875E0,-2.253040511E0,4.580774816E0,1.616074220E0,5.354566774E0
5.874446875E0,-2.633782981E0,5.440323118E0,2.163236926E0,6.419775885E0
5.884404875E0,-3.671626922E0,5.463728353E0,-5.603575332E-1,6.606600664E0
5.894361875E0,-3.423173759E0,5.397525592E0,-3.621531487E-2,6.391612680E0
5.904318875E0,-2.212165988E0,4.867400064E0,-6.992232040E-2,5.346975863E0
5.914275875E0,-2.060023483E0,4.649377273E0,-2.899107993E-1,5.093569873E0
5.924232875E0,-1.116909406E0,3.753657510E0,9.521700986E-1,4.030391944E0
5.934189875E0,7.223395863E-1,3.688625947E0,1.980877034E0,4.248718593E0
5.944145875E0,1.503191383E0,3.962858022E0,1.238170719E0,4.415528821E0
5.954103875E0,1.741516584E0,3.875593007E0,5.241292083E-1,4.281099461E0
5.964060875E0,2.483023928E0,3.908512246E0,-9.555753708E-2,4.631523188E0
5.974017875E0,3.040840992E0,3.203928022E0,-4.637046665E-1,4.441496451E0
5.983974875E0,3.039672718E0,2.448915072E0,-6.613860177E-1,3.959068922E0
5.993931875E0,2.739711725E0,1.809160098E0,-1.340135050E-1,3.285884997E0
6.003888875E0,3.225625870E0,1.885107243E0,3.711158339E-1,3.754466478E0
6.013845875E0,4.075466040E0,2.352992669E0,3.363727017E-1,4.717959786E0
6.023801875E0,3.409708790E0,2.541085317E0,-8.611662269E-2,4.253309852E0
6.033758875E0,2.176229732E0,3.027491214E0,-3.875137655E-1,3.748579172E0
6.043716875E0,2.027731650E0,2.200857473E0,5.998413686E-1,3.052094187E0
6.053672875E0,1.970995532E0,2.098438813E0,1.821706468E0,3.406887626E0
6.063629875E0,1.978357176E0,2.203129116E0,2.597798631E0,3.939064959E0
6.073586875E0,7.439856863E-1,1.654284312E0,3.254025797E0,3.725433555E0
6.083543875E0,-7.511786386E-1,9.344669223E-1,4.183818455E0,4.352221805E0
6.093500875E0,-2.021458757E0,2.029919386E-2,4.892641325E0,5.293831004E0
6.103457875E0,-2.761918280E0,-6.524510336E-1,5.675768273E0,6.345725366E0
6.113414875E0,-2.439336748E0,-9.107962239E-1,6.232520267E0,6.754570483E0
6.123371875E0,-2.352702354E0,-7.268217695E-1,6.267562630E0,6.733930470E0
6.133328875E0,-1.572145258E0,-6.085945773E-1,5.799103593E0,6.039174658E0
6.143285875E0,7.379364493E-1,-6.186833632E-1,5.267879373E0,5.355172490E0
6.153242875E0,3.024691567E0,-1.482217712E0,4.729522719E0,5.806385586E0
6.163199875E0,4.614652998E0,-9.409280956E-1,4.281158223E0,6.364643251E0
6.173156875E0,5.984790112E0,5.700321901E-1,4.110438237E0,7.282743431E0
6.183113875E0,6.414928252E0,5.841169631E-1,4.342260457E0,7.768379689E0
6.193070875E0,5.956833404E0,5.724272096E-1,4.552284257E0,7.518964628E0
6.203027875E0,5.472351826E0,-1.183336115E-1,3.705731392E0,6.610074319E0
6.212984875E0,4.485772179E0,-1.044174721E0,2.281150269E0,5.139659468E0
6.222941875E0,3.005156604E0,-1.809793351E0,9.368742210E-1,3.630984921E0
6.232898875E0,1.037135989E0,-2.377518815E0,-3.610198121E-1,2.618889474E0
6.242855875E0,-2.496305001E-1,-3.093065983E0,-1.519126507E0,3.455013445E0
6.252812875E0,-2.104135755E0,-4.074206550E0,-1.952445386E0,4.983832790E0
6.262769875E0,-4.607978694E0,-5.526529788E0,-1.639252290E0,7.379915122E0
6.272726875E0,-5.987573971E0,-7.133448730E0,3.363454391E-1,9.319348748E0
6.282683875E0,-6.522229922E0,-8.743105338E0,2.336345646E0,1.115526266E1
6.292640875E0,-6.271315958E0,-9.785303115E0,3.421602612E0,1.211564795E1
6.302597875E0,-5.387824477E0,-9.637707113E0,3.074340567E0,1.146148424E1
6.312554875E0,-3.509716351E0,-9.918367617E0,1.820944576E0,1.067745120E1
6.322511875E0,-2.020644240E0,-9.840823013E0,-7.235142919E-1,1.007215338E1
6.332468875E0,-1.632887888E0,-8.652060682E0,-3.126266474E0,9.343340888E0
6.342425875E0,-1.918593662E0,-7.024185319E0,-3.836053550E0,8.230157220E0
6.352382875E0,-2.031952170E0,-4.547652678E0,-3.966665437E0,6.367449190E0
6.362339875E0,-1.481729470E0,-1.434134889E0,-4.924521514E0,5.338836694E0
6.372296875E0,-1.925440606E-1,2.406013466E0,-5.873969003E0,6.350550044E0
6.382253875E0,1.963933265E0,6.919371055E0,-4.443701463E0,8.454656253E0
6.392210875E0,6.128311189E0,9.637068597E0,1.557914597E-1,1.142162686E1
6.402167875E0,5.147579343E0,8.137260121E0,2.679597670E-1,9.632464783E0
6.412124875E0,2.030379123E0,4.690553366E0,-3.756263907E0,6.342968453E0
6.422081875E0,-3.022521080E0,4.663204769E0,-4.852032705E0,7.377217210E0
6.432038875E0,-2.935253726E0,5.360103412E0,-1.937643306E0,6.410997162E0
6.441995875E0,-2.305061580E0,4.422614649E0,-2.970018346E0,5.804639369E0
6.451952875E0,-2.626491503E0,4.348431609E0,-4.530102845E0,6.806551760E0
6.461909875E0,-3.911660972E0,5.287216700E0,-4.958215510E0,8.236483050E0
6.471866875E0,-4.494835071E0,4.888480446E0,-3.610163330E0,7.558707737E0
6.481823875E0,-4.819325719E0,5.031757110E0,-2.840564500E0,7.524180134E0
6.491780875E0,-4.574580275E0,6.552172344E0,-2.424459677E0,8.350793486E0
6.501737875E0,-3.696694228E0,6.759720433E0,-1.307060859E0,7.814587426E0
6.511694875E0,-3.001503264E0,5.205305979E0,-3.548306805E-1,6.019147530E0
6.521651875E0,-1.825963972E0,4.594628039E0,3.446872231E-1,4.956163892E0
6.531605625E0,-1.379778441E0,4.495645203E0,-1.887250248E-1,4.706403242E0
6.541562625E0,-1.428166197E0,3.344059469E0,-1.696758194E0,4.012652588E0
6.551519625E0,-5.736242808E-1,2.138623803E0,-3.022126978E0,3.746466076E0
6.561476625E0,2.052451778E0,4.713428843E-1,-3.425973113E0,4.021444291E0
6.571433625E0,5.958387010E0,-1.805359992E0,-4.214558437E0,7.518257995E0
6.581390625E0,8.021626754E0,-4.010872434E0,-2.025049240E0,9.194260051E0
6.591347625E0,6.907055064E0,-5.183974167E0,4.888068218E0,9.923417190E0
6.601304625E0,5.353322981E0,-4.850963541E0,9.186194476E0,1.168657705E1
6.611261625E0,4.361408334E0,-4.745868026E0,5.767522781E0,8.649246499E0
6.621218625E0,1.596526393E0,-4.344138583E0,4.426068015E0,6.403945239E0
6.631175625E0,-4.395644367E-1,-3.469755310E0,5.068452482E0,6.158054024E0
6.641132625E0,7.639062729E-1,-7.499837601E-1,6.784766981E0,6.868703766E0
6.651088625E0,1.518521320E0,1.857242337E0,6.312376860E0,6.752877737E0
6.661045625E0,7.629179473E-1,4.027865027E0,4.144099781E0,5.829176911E0
6.671002625E0,-1.252191611E0,6.828957313E0,1.659747658E0,7.138445496E0
6.680959625E0,-2.139142451E0,8.456811626E0,-9.821053576E-1,8.778275698E0
6.690916625E0,-5.119114512E-1,6.726653259E0,-3.211069227E0,7.471337429E0
6.700873625E0,-1.782896452E-1,1.660792263E0,-4.859138826E0,5.138214502E0
6.710830625E0,-1.790522975E0,-6.300133960E0,-8.337509716E-1,6.602484466E0
6.720787625E0,-5.768462428E0,-1.433262718E1,-1.924988177E0,1.556935902E1
6.730744625E0,-6.624397151E0,-2.419387919E1,-8.707620340E0,2.655276031E1
6.740701625E0,3.357244648E0,-2.596877578E1,-3.879734589E0,2.647075268E1
6.750658625E0,6.989093839E0,-1.473438937E1,-3.295940685E0,1.663769478E1
6.760615625E0,-3.398266374E0,-2.658758778E0,-6.620590029E0,7.902494855E0
6.770572625E0,-6.304004817E0,2.562474432E0,-4.880682600E0,8.374235164E0
6.780529625E0,-6.693565620E0,2.541290554E0,-2.555182077E0,7.602034848E0
6.790486625E0,-6.396002569E0,2.339728260E-1,7.192937717E-1,6.440572620E0
6.800443625E0,-6.070474041E0,-2.065326031E0,1.655064769E0,6.622345965E0
6.810400625E0,-5.996690950E0,-3.926004192E0,1.395287450E0,7.302098214E0
6.820357625E0,-4.937017014E0,-5.228939255E0,4.032963799E0,8.245043344E0
6.830314625E0,-3.884199231E0,-4.587846438E0,4.498555362E0,7.508151500E0
6.840271625E0,-3.201450265E0,-4.693902066E0,2.711821091E0,6.295710765E0
6.850228625E0,-7.985907868E-3,-4.632012212E0,-2.501226017E0,5.264193433E0
6.860185625E0,1.557391271E0,-3.375638527E0,-4.109777794E0,5.541721443E0
6.870142625E0,-1.293501312E-1,-1.224401110E0,-3.573551866E0,3.779704020E0
6.880099625E0,-1.406572576E0,-1.259607196E-2,-3.791407427E0,4.043930681E0
6.890056625E0,-1.472530630E0,2.842284751E0,5.977269423E-1,3.256410072E0
6.900013625E0,-3.056535796E0,4.399661404E0,1.463239112E0,5.553422390E0
6.909969625E0,-3.181546050E0,6.448200663E0,1.220957977E0,7.293302780E0
6.919926625E0,-2.750546615E0,8.226530732E0,1.431984575E0,8.791580881E0
6.929883625E0,-4.238396366E0,5.480148504E0,1.904043451E0,7.184804301E0
6.939840625E0,-3.658152598E0,3.301678265E0,-2.657980514E-1,4.934957791E0
6.949797625E0,-3.050752315E0,2.209031296E0,-7.043272385E-1,3.831838437E0
6.959754625E0,-2.582040385E0,3.455337830E0,-3.712037614E-1,4.329443879E0
6.969711625E0,1.942409226E-1,6.260148361E0,6.038469306E-1,6.292202965E0
6.979668625E0,4.287549815E0,5.294535660E0,1.502474222E0,6.976576528E0
6.989625625E0,4.329651521E0,4.718933412E0,6.793108034E-1,6.440161334E0
6.999582625E0,2.513817412E0,3.878077489E0,-8.152271385E-1,4.692905100E0
7.009539625E0,1.318723716E0,3.490728103E0,-1.256323984E0,3.937329664E0
7.019496625E0,1.083317883E0,3.274537829E0,-1.262317819E0,3.672822063E0
7.029453625E0,1.269901365E0,3.865123567E0,-6.891505710E-1,4.126349255E0
7.039410625E0,2.245057161E0,2.959516747E0,4.398942196E-1,3.740658760E0
7.049367625E0,2.690522900E0,2.026394100E0,1.078868079E0,3.536826664E0
7.059324625E0,2.627794263E0,1.161535941E0,1.033109962E0,3.053159777E0
7.069281625E0,2.715717675E0,-3.084698617E-2,1.556276207E0,3.130186841E0
7.079238625E0,2.644308554E0,-7.054747546E-1,2.274816565E0,3.558771243E0
7.089195625E0,3.752790661E0,3.108169341E-1,3.610882537E0,5.217136917E0
7.099152625E0,5.185053563E0,1.211180556E0,5.171202679E0,7.422471013E0
7.109109625E0,5.101529011E0,2.042185675E0,5.590579019E0,7.839049327E0
7.119066625E0,3.043985040E0,2.506075113E0,5.149378531E0,6.485549834E0
7.129022625E0,-8.385945126E-2,2.577507623E0,4.842527179E0,5.486405693E0
7.138979625E0,-1.428951917E0,1.909314716E0,5.524425960E0,6.017197724E0
7.148936625E0,-4.297298585E-1,8.031975156E-1,7.004987741E0,7.063968236E0
7.158893625E0,-4.040294454E-2,4.984792274E-1,7.209290625E0,7.226616446E0
7.168850625E0,-8.602832973E-2,4.495152283E-1,6.786526408E0,6.801941304E0
7.178807625E0,6.695634949E-1,6.793827242E-1,5.840936912E0,5.918312274E0
7.188764625E0,3.929000890E0,6.195709705E-3,5.600982385E0,6.841643812E0
7.198721625E0,6.093723155E0,-2.026463681E-1,4.677891220E0,7.684867839E0
7.208678625E0,7.168947760E0,2.855066764E-1,4.505411807E0,8.471957366E0
7.218635625E0,7.382846510E0,-6.202311212E-1,3.379249182E0,8.143121900E0
7.228592625E0,7.147655125E0,-2.929453872E0,2.131645736E0,8.013400484E0
7.238549625E0,5.919874324E0,-4.262949994E0,6.897082492E-1,7.327574778E0
7.248506625E0,2.740525072E0,-3.988133782E0,-3.812291050E-1,4.853969959E0
7.258463625E0,-3.863921964E-1,-4.111963191E0,-9.530891347E-1,4.238622313E0
7.268420625E0,-2.520896636E0,-5.825952837E0,-2.629189993E0,6.870901421E0
7.278377625E0,-6.150387937E0,-7.811281357E0,-2.900849293E0,1.035655902E1
7.288334625E0,-9.272565452E0,-1.008699196E1,8.173471928E-2,1.370162609E1
7.298291625E0,-1.088144146E1,-1.126283662E1,2.789590813E0,1.590720195E1
7.308248625E0,-1.022489971E1,-1.165828382E1,3.774903953E0,1.595976364E1
7.318205625E0,-6.511565770E0,-1.196168531E1,3.182275198E0,1.398603874E1
7.328161625E0,-1.332669325E0,-1.044667408E1,-4.792895427E-1,1.054223531E1
7.338118625E0,-1.679292927E-2,-8.001332822E0,-2.619041273E0,8.419084637E0
7.348075625E0,-8.435365793E-1,-5.277550083E0,-2.593721075E0,5.940663082E0
7.358032625E0,8.357223603E-1,-4.134606534E0,-2.528852065E0,4.918180133E0
7.367989625E0,1.690478577E0,-2.554967192E0,-3.035855656E0,4.313002983E0
7.377946625E0,1.480873438E0,1.117654341E-1,-2.875705389E0,3.236535051E0
7.387903625E0,2.330887270E0,2.156038565E0,-2.706970825E0,4.172436795E0
7.397860625E0,3.597021713E0,3.091977232E0,-1.560171622E0,4.993297897E0
7.407817625E0,1.446138053E0,2.323485864E0,-3.995342814E0,4.842795270E0
7.417774625E0,3.623694956E-2,3.285841666E0,-3.642027147E0,4.905347114E0
7.427731625E0,-3.604239808E-1,3.745106542E0,-3.471000182E0,5.118942344E0
7.437688625E0,-7.144508153E-1,4.155703872E0,-3.415393161E0,5.426345463E0
7.447645625E0,-1.570201059E0,4.509815930E0,-3.862136225E0,6.141666492E0
7.457602625E0,-2.029214650E0,4.682947308E0,-4.210889309E0,6.616592504E0
7.467559625E0,-2.901655625E0,5.463847636E0,-4.370604835E0,7.574656624E0
7.477516625E0,-3.635526797E0,5.977537225E0,-3.700580580E0,7.914689065E0
7.487472625E0,-3.748700826E0,6.792714517E0,-3.081632922E0,8.348065036E0
7.497429625E0,-4.285251274E0,8.138818989E0,-1.840467260E0,9.380355684E0
7.507386625E0,-4.949680914E0,6.610557961E0,-1.310955690E0,8.361663861E0
7.517343625E0,-5.256259201E0,6.331739915E0,-5.574896201E-1,8.248029208E0
7.527300625E0,-5.144434125E0,6.046985191E0,-6.407218114E-1,7.965033384E0
7.537256792E0,-4.592393818E0,5.155500566E0,-1.051315341E0,6.983876503E0
7.547213792E0,-3.931181901E0,4.892691026E0,-1.686925516E0,6.499102578E0
7.557170792E0,-3.376153666E0,4.785727910E0,-2.666604280E0,6.435245418E0
7.567127792E0,-2.169388343E0,4.926438816E0,-3.043297992E0,6.183664598E0
7.577084792E0,3.093054289E-1,3.883375651E0,-2.729007812E0,4.756444042E0
7.587041792E0,2.883787703E0,1.804188210E0,-2.831603934E0,4.425980960E0
7.596998792E0,5.280516375E0,-1.367079020E-3,-3.327984889E0,6.241741622E0
7.606955792E0,6.545904129E0,-1.623398150E0,-3.531990150E-1,6.753445932E0
7.616912792E0,8.603570892E0,-4.354296951E0,5.453260667E0,1.107787822E1
7.626869792E0,1.112601645E1,-8.746197345E0,7.933261292E0,1.622408225E1
7.636826792E0,7.968080876E0,-9.203204026E0,6.546369567E0,1.382187512E1
7.646782792E0,1.196526410E0,-7.259058616E0,4.076970821E0,8.411141333E0
7.656739792E0,-1.807222915E0,-4.264474947E0,2.513382964E0,5.269620021E0
7.666696792E0,-2.241664606E-1,-4.934903830E-1,2.497817675E0,2.555949237E0
7.676653792E0,1.219497782E0,2.526617551E0,3.148432391E0,4.217060304E0
7.686610792E0,1.719430334E0,5.252716958E0,2.730581590E0,6.164702096E0
7.696567792E0,1.913946149E0,6.396042915E0,1.796534497E0,6.913760990E0
7.706524792E0,3.807853013E-2,5.534957380E0,1.039555421E0,5.631862804E0
7.716481792E0,-2.877020136E-1,-1.129957468E0,-1.082434807E0,1.590987568E0
7.726438792E0,-2.850405364E0,-8.184547724E0,-1.567143842E0,8.807245426E0
7.736395792E0,-4.803796976E0,-1.466265806E1,-1.414447606E0,1.549421405E1
7.746352792E0,-2.892657929E0,-1.740348895E1,-6.242071109E0,1.871396134E1
7.756309792E0,4.136339648E0,-1.533091880E1,-4.732419138E0,1.656931404E1
7.766266792E0,1.558071887E0,-1.127993388E1,-3.874334393E0,1.202809060E1
7.776223792E0,-6.669525962E0,-5.710036465E0,-4.520033647E0,9.875109982E0
7.786179792E0,-8.653264039E0,-1.936411298E0,-4.533013004E0,9.958758664E0
7.796136792E0,-9.778350191E0,-3.517451048E-2,-3.112757359E0,1.026190178E1
7.806093792E0,-1.014388888E1,6.356361955E-1,-1.452557419E0,1.026705596E1
7.816050792E0,-8.889723101E0,-5.280667233E-1,-6.227582878E-1,8.927141713E0
7.826007792E0,-7.367958915E0,-2.172687342E0,-4.315098971E-1,7.693737040E0
7.835964792E0,-4.663666699E0,-4.033216399E0,5.531936708E-1,6.190528640E0
7.845921792E0,-1.174953400E0,-5.449598556E0,1.993906823E0,5.920667558E0
7.855878792E0,5.909893419E-1,-5.018738285E0,3.779598975E0,6.310496873E0
7.865835792E0,1.909759250E0,-3.621884658E0,4.664321879E0,6.206539089E0
7.875792792E0,2.393342988E0,-2.469291449E0,4.121076077E0,5.367379151E0
7.885749792E0,2.814451127E0,-7.597684908E-1,1.128180499E0,3.125887801E0
7.895706792E0,1.593057532E0,6.837903553E-1,-2.410859931E0,2.969452333E0
7.905663792E0,-8.218876288E-1,1.339138100E0,-5.283552250E0,5.512233168E0
7.915620792E0,-1.263697031E0,2.877200814E0,-4.269122314E0,5.301001797E0
7.925576792E0,-2.381661567E0,4.208217131E0,1.435628121E0,5.044049103E0
7.935533792E0,-4.309054997E0,4.760698904E0,5.440226054E0,8.415953216E0
7.945490792E0,-4.773565994E0,5.135903038E0,3.148954840E0,7.686374236E0
7.955447792E0,-5.168826955E0,6.394735478E0,-7.742518978E-1,8.258866745E0
7.965404792E0,-3.639348830E0,4.803979994E0,-8.901473665E-1,6.092244744E0
7.975361792E0,-7.507985696E-1,3.405334196E0,9.635959965E-1,3.617805512E0
7.985318792E0,5.171046558E-1,3.197462756E0,1.105555137E0,3.422487029E0
7.995275792E0,1.383217042E0,3.903857862E0,1.416137305E0,4.377081272E0
8.005232792E0,2.732581337E0,3.931156758E0,-1.083003742E-1,4.788812295E0
8.015189792E0,4.164611228E0,3.245245618E0,-5.095273952E-1,5.304264696E0
8.025146792E0,3.853120987E0,3.910878614E0,-5.542907546E-1,5.518038702E0
8.035103792E0,4.088679578E0,3.181274155E0,-9.945036475E-1,5.275115491E0
8.045060792E0,2.894042257E0,2.257849115E0,-1.379688540E0,3.921339526E0
8.055016792E0,2.040469225E0,1.508652974E0,-7.354750639E-1,2.642058293E0
8.064973792E0,1.497742801E0,7.018804711E-1,-1.131975634E-1,1.657915372E0
8.074930792E0,1.034065324E0,3.677483493E-1,2.818918546E-1,1.133134132E0
8.084887792E0,4.546496683E-1,5.305506206E-1,5.380338871E-1,8.818564201E-1
8.094844792E0,7.373324320E-1,1.302794731E0,8.587934268E-1,1.725821363E0
8.104801792E0,1.575370582E0,2.313508176E0,1.847942340E0,3.353953405E0
8.114758792E0,3.001644766E0,3.127465153E0,2.845048145E0,5.185094843E0
8.124715792E0,4.281407022E0,4.020904502E0,3.880211138E0,7.039471399E0
8.134672792E0,4.485997005E0,4.550629495E0,4.628720230E0,7.890338960E0
8.144629792E0,2.697380807E0,4.613877658E0,4.710799935E0,7.124280054E0
8.154586792E0,1.941433471E-1,3.646063480E0,5.268868722E0,6.410339160E0
8.164542792E0,-1.679984141E0,1.732687873E0,5.118823321E0,5.659231941E0
8.174499792E0,-2.385711349E0,-7.519402385E-2,5.532137852E0,6.025099335E0
8.184456792E0,-2.141915054E0,7.717494357E-1,6.264996287E0,6.665851466E0
8.194413792E0,-7.484975441E-1,9.002525246E-1,6.179571975E0,6.289500217E0
8.204370792E0,1.567885415E0,7.779042149E-1,5.918079228E0,6.171471575E0
8.214327792E0,4.387640698E0,1.334136976E0,6.154105597E0,7.674915508E0
8.224284792E0,7.127890366E0,1.358114653E0,5.295495772E0,8.982960089E0
8.234241792E0,8.154460291E0,1.010414652E0,3.453077881E0,8.912906779E0
8.244198792E0,7.925714291E0,1.120782602E-1,2.004594949E0,8.176057085E0
8.254155792E0,6.668871074E0,-1.021754158E0,2.195883247E0,7.095049414E0
8.264112792E0,5.022247199E0,-2.508550240E0,1.643014973E0,5.849383680E0
8.274068792E0,2.325787036E0,-4.329354483E0,-5.235281146E-1,4.942335203E0
8.284025792E0,-2.166120919E0,-5.810044903E0,-1.979574713E0,6.509025860E0
8.293982792E0,-6.115067831E0,-7.270960039E0,-2.024472705E0,9.713876888E0
8.303939792E0,-8.758457787E0,-9.796077780E0,-7.930710152E-2,1.314077670E1
8.313896792E0,-1.050510413E1,-1.355462941E1,3.065373570E0,1.742072635E1
8.323853792E0,-9.342046747E0,-1.570919623E1,3.226844138E0,1.855977389E1
8.333810792E0,-5.664291943E0,-1.175184862E1,1.689931716E0,1.315469568E1
8.343767792E0,-2.012208170E-1,-8.926279308E0,9.073451972E-1,8.974532156E0
8.353724792E0,1.928157076E0,-9.652335677E0,-9.988751721E-1,9.893590114E0
8.363681792E0,5.590376705E-2,-7.667648013E0,-1.540015100E0,7.820971665E0
8.373638792E0,-2.627523098E-1,-6.005885112E0,-1.233292679E0,6.136831885E0
8.383594792E0,6.973892248E-1,-4.568265867E0,-2.083206816E0,5.069038903E0
8.393551792E0,1.578189817E0,-2.903541936E0,-2.331778386E0,4.044555515E0
8.403508792E0,1.360844133E0,-1.461885189E0,-2.916386515E0,3.534729886E0
8.413465792E0,9.769098142E-1,1.903701389E-1,-2.594462210E0,2.778817686E0
8.423422792E0,1.212838241E-1,8.870968741E-1,-2.467515065E0,2.624934519E0
8.433379792E0,4.951539159E-2,2.115764698E0,-1.958023776E0,2.883187323E0
8.443336792E0,-2.699266241E-1,2.495775828E0,-2.624962749E0,3.632105009E0
8.453293792E0,-1.101516903E0,2.677578626E0,-4.037069714E0,4.967967257E0
8.463250792E0,-2.119432071E0,3.272822841E0,-4.778359834E0,6.167340136E0
8.473207792E0,-2.426721380E0,3.898301253E0,-4.605758799E0,6.503748414E0
8.483164792E0,-2.864479027E0,4.773087984E0,-3.882051841E0,6.786599701E0
8.493120792E0,-2.856047635E0,5.281921461E0,-3.531305441E0,6.966047698E0
8.503077792E0,-2.346021326E0,5.220964823E0,-3.202339334E0,6.558754985E0
8.513034792E0,-2.731093221E0,5.040726739E0,-3.696990974E0,6.821696160E0
8.522991792E0,-4.143690183E0,6.342918037E0,-3.415076827E0,8.310567206E0
8.532948792E0,-5.610211630E0,1.014281884E1,-2.302250239E0,1.181742801E1
8.542905792E0,-5.667747647E0,9.216932119E0,-1.957692239E0,1.099580647E1
8.552862792E0,-4.588147570E0,6.785113721E0,-2.269986180E0,8.499511962E0
8.562819792E0,-4.412856815E0,5.855668972E0,-2.642147131E0,7.793786361E0
8.572776792E0,-3.904208695E0,6.117407302E0,-2.637409717E0,7.721492579E0
8.582733792E0,-3.094163505E0,4.542978414E0,-3.177191629E0,6.348783136E0
8.592689792E0,-2.476854238E0,4.347911791E0,-3.366152881E0,6.030765215E0
8.602646792E0,-9.952409814E-1,4.907981495E0,-2.859612097E0,5.766816133E0
8.612603792E0,1.755186204E0,3.682595129E0,-2.066976700E0,4.573245912E0
8.622560792E0,4.564480380E0,1.304706770E0,-1.338322705E0,4.932326891E0
8.632517792E0,4.880715929E0,5.765225995E-1,8.511312354E-1,4.987804193E0
8.642474792E0,6.314417539E0,-2.100683559E0,5.623245074E0,8.712383453E0
8.652431792E0,7.682868315E0,-5.662842418E0,8.515141110E0,1.279069497E1
8.662388792E0,6.215000839E0,-7.038173028E0,9.304702334E0,1.321891072E1
8.672345792E0,1.737492530E0,-7.716212647E0,5.558210587E0,9.667084505E0
8.682301792E0,-1.798051558E0,-6.168595582E0,1.515537486E0,6.601622128E0
8.692258792E0,-3.386604980E-2,-4.002715568E0,1.589452431E0,4.306882615E0
8.702215792E0,4.149191828E0,-1.327517343E0,3.751225361E0,5.748894401E0
8.712172792E0,5.137830280E0,2.220023476E0,4.958969800E0,7.477779464E0
8.722129792E0,4.482334017E0,4.950201316E0,2.796626183E0,7.239953681E0
8.732086792E0,2.670335096E0,5.867128930E0,1.572403997E-1,6.448148257E0
8.742043792E0,8.841808677E-1,2.043183210E0,-2.393314483E0,3.268688981E0
8.752000792E0,-3.604957554E-1,-4.810071623E0,-3.488078145E0,5.952599042E0
8.761957792E0,-2.958001733E0,-1.086968271E1,-1.070921055E0,1.131576989E1
8.771914792E0,-4.529744118E0,-1.530234112E1,-3.335577790E0,1.630356724E1
8.781870792E0,4.040595585E-1,-1.831641005E1,-4.075661922E0,1.876872828E1
8.791827792E0,5.326932743E0,-1.571435230E1,-1.409340355E0,1.665242688E1
8.801784792E0,-2.133413056E0,-8.208330104E0,-4.562197042E0,9.630253175E0
8.811741792E0,-7.527245840E0,-3.275653478E0,-4.224234117E0,9.232198520E0
8.821698792E0,-8.102852765E0,-1.580007716E0,-4.586496609E0,9.443971541E0
8.831655792E0,-1.038779612E1,1.077243065E0,-3.574280137E0,1.103821722E1
8.841612792E0,-1.161009107E1,2.670363747E0,-8.098276734E-1,1.194072351E1
8.851569792E0,-1.029922718E1,1.291707825E0,-5.791459528E-1,1.039605693E1
8.861525792E0,-8.713186889E0,-1.039164827E0,-1.242061163E0,8.862404033E0
8.871482792E0,-6.879450359E0,-4.172789437E0,3.365481913E-2,8.046125874E0
8.881439792E0,-5.040021565E0,-6.378500683E0,1.285296353E0,8.230375147E0
8.891396792E0,-2.766774393E0,-7.240380270E0,1.940661347E0,7.990263667E0
8.901353792E0,-6.106685847E-1,-6.331354584E0,2.281728559E0,6.757606987E0
8.911310792E0,1.692607256E0,-3.491148518E0,2.918744697E0,4.855111523E0
8.921267792E0,4.429608796E0,-1.089178986E0,3.858909731E0,5.974858095E0
8.931224792E0,5.659268600E0,-1.419522697E-1,-3.123986059E-1,5.669661755E0
8.941181792E0,4.224944846E0,1.339886543E0,-6.861263765E0,8.168377767E0
8.951137792E0,-3.247657594E-1,3.266027207E0,-6.125903306E0,6.949755235E0
8.961094792E0,-2.726864807E0,4.344171327E0,-4.254148765E0,6.663737533E0
8.971051792E0,-5.820727766E0,6.591950367E0,-1.328690002E0,8.893823614E0
8.981008792E0,-8.408966784E0,7.108923168E0,4.678428287E0,1.196391250E1
8.990965792E0,-5.299322775E0,4.018655663E0,8.602166975E0,1.087334778E1
9.000922792E0,5.375549271E-1,3.741195340E0,1.776866949E0,4.176453522E0
9.010879792E0,2.132169061E0,4.511725631E0,-7.005515452E-1,5.039105629E0
9.020836792E0,-1.698499568E-1,3.760466593E0,3.613421398E0,5.217927961E0
9.030793792E0,-6.394281149E-1,3.129254401E0,1.233224559E0,3.423732500E0
9.040749792E0,5.251267433E-1,3.619277970E0,3.063346048E-1,3.669982562E0
9.050706792E0,2.353084762E0,4.151144798E0,1.689497414E0,5.061957383E0
9.060663792E0,3.315137971E0,4.353124584E0,4.912468064E-1,5.493737966E0
9.070620792E0,4.076118590E0,3.349969250E0,-1.542405003E0,5.496912763E0
9.080577792E0,4.204027601E0,1.791887423E0,-1.788818804E0,4.907604438E0
9.090534792E0,4.215713262E0,2.788168770E-1,-1.748190011E0,4.572323859E0
9.100491792E0,3.906295859E0,-8.745692146E-1,-9.391517846E-1,4.111693656E0
9.110448792E0,3.302397180E0,-7.975309789E-1,3.222704601E-1,3.412585684E0
9.120404792E0,2.827014455E0,9.980495453E-2,9.566185141E-1,2.986149819E0
9.130361792E0,2.490802771E0,1.967990355E0,1.537040622E0,3.526978644E0
9.140318792E0,2.815154840E0,2.887224112E0,2.594983197E0,4.795320389E0
9.150275792E0,3.535066954E0,2.964212646E0,3.335020258E0,5.692593004E0
9.160232792E0,3.833145145E0,3.687056555E0,4.134500699E0,6.736578046E0
9.170189792E0,3.746050867E0,4.656823702E0,4.526916697E0,7.497458161E0
9.180146792E0,3.126140758E0,4.217817675E0,3.702418360E0,6.424223197E0
9.190103792E0,1.243969110E0,2.756356409E0,3.112253036E0,4.339479089E0
9.200060792E0,-1.555884444E0,1.425278111E0,3.289523658E0,3.908089046E0
9.210016792E0,-3.027058227E0,8.787102127E-1,3.610182041E0,4.792559600E0
9.219973792E0,-3.115131913E0,8.558622175E-1,4.224054315E0,5.317817393E0
9.229930792E0,-2.482370209E0,6.915203744E-1,5.092570492E0,5.707419425E0
9.239887792E0,-1.168772601E0,8.289509922E-1,5.497194307E0,5.680874439E0
9.249844792E0,7.588776675E-1,3.207595396E-1,4.627763625E0,4.700529563E0
9.259801792E0,2.744177535E0,-9.670692426E-1,3.975434214E0,4.926439937E0
9.269758792E0,4.148224991E0,-8.211537302E-1,3.960258350E0,5.793592170E0
9.279715792E0,6.142656748E0,-1.939223224E-1,5.050151281E0,7.954487146E0
9.289671792E0,7.019315758E0,6.793002784E-1,4.638304986E0,8.440741420E0
9.299628792E0,7.049041248E0,1.029628018E0,4.500015997E0,8.426105882E0
9.309585792E0,6.343488141E0,1.795089358E-1,4.700811721E0,7.897448707E0
9.319542792E0,4.619223182E0,-9.521307760E-1,2.323765361E0,5.257723963E0
9.329499792E0,2.991216257E0,-1.541989120E0,-6.908323033E-1,3.435455489E0
9.339456792E0,6.254064918E-2,-1.717787998E0,-2.047394375E0,2.673299583E0
9.349413792E0,-3.186032327E0,-3.229611917E0,-9.184607542E-1,4.628689369E0
9.359370792E0,-5.835649275E0,-5.617391426E0,2.252135508E-1,8.103123474E0
9.369326792E0,-8.466688158E0,-1.046214698E1,1.052552027E0,1.349997013E1
9.379283792E0,-1.210580047E1,-1.695745866E1,1.170462739E0,2.086805674E1
9.389240792E0,-1.283869165E1,-1.908661816E1,1.107647270E0,2.302950018E1
9.399197792E0,-5.727430177E0,-1.348288173E1,1.829027036E0,1.476268594E1
9.409154792E0,-1.070454228E0,-8.874734348E0,9.559493002E-1,8.990028980E0
9.419111792E0,5.189015783E-1,-7.854733186E0,-6.820622107E-1,7.901348058E0
9.429068792E0,2.257736848E0,-5.699086969E0,-2.711122348E0,6.702771989E0
9.439024792E0,2.649171391E0,-2.341696433E0,-4.262992971E0,5.538479964E0
9.448981792E0,2.226257485E0,5.431496161E-1,-5.007740257E0,5.507149569E0
9.458938792E0,2.348554924E0,1.842376961E0,-3.716897235E0,4.767115286E0
9.468895792E0,1.819634800E0,1.847316688E0,-2.314192300E0,3.475505108E0
9.478852792E0,-8.993215017E-1,1.252692279E0,-1.291822138E0,2.011671331E0
9.488809792E0,-2.481223277E0,3.856470273E0,5.654506043E-1,4.620450876E0
9.498766792E0,-3.533980542E0,5.281519758E0,-1.006129520E0,6.433954152E0
9.508723792E0,-8.262707017E-1,4.587327206E0,6.157056686E-1,4.701636697E0
9.518679792E0,-1.766787519E0,4.164698060E0,4.639055184E-1,4.547686928E0
9.528636792E0,-3.301121318E0,2.315138964E0,4.530387604E-1,4.057402432E0
9.538597375E0,-2.607474311E0,2.858770391E0,-4.056378974E0,5.605863075E0
9.548554375E0,-3.328752043E0,4.134161561E0,-6.452933400E0,8.355371412E0
9.558511375E0,-3.890922360E0,5.308411102E0,-4.640935063E0,8.053370940E0
9.568468375E0,-3.525488631E0,6.113848686E0,-5.031043750E0,8.667157380E0
9.578425375E0,-2.939539150E0,6.735484893E0,-5.032002693E0,8.906665946E0
9.588382375E0,-4.868828247E0,7.760763752E0,-5.324968078E0,1.059670834E1
9.598338375E0,-4.726710501E0,9.711736956E0,-5.587623836E0,1.216064007E1
9.608295375E0,-2.358108398E0,6.923351839E0,-3.256948527E0,8.006321853E0
9.618252375E0,-1.881945946E0,3.001271129E0,-5.211949586E0,6.301886021E0
9.628209375E0,-2.485819189E0,2.508593509E0,-6.275272769E0,7.200790704E0
9.638166375E0,-2.082129759E0,2.945983366E0,-5.684112250E0,6.732251807E0
9.648123375E0,-1.002191201E0,3.266347634E0,-4.363672084E0,5.542115853E0
9.658080375E0,-1.468105019E-1,4.110844034E0,-2.462216611E0,4.794069527E0
9.668036375E0,5.911281402E-1,3.825285317E0,-1.617570522E0,4.195089347E0
9.677993375E0,3.512428582E0,5.111998451E-1,-1.550728369E-1,3.552819642E0
9.687950375E0,6.553725949E0,-1.719779559E0,3.942502403E0,7.839151149E0
9.697907375E0,9.228754020E0,-2.912781122E0,8.650474332E0,1.298017337E1
9.707864375E0,9.048084996E0,-3.089502105E0,1.168490268E1,1.509800702E1
9.717821375E0,6.962767335E0,-4.145525039E0,1.069154027E1,1.341545900E1
9.727777375E0,2.977146395E0,-5.247567900E0,7.671190256E0,9.759484078E0
9.737734375E0,-5.754949513E-1,-4.776483462E0,4.750073344E0,6.760856860E0
9.747691375E0,-1.906530272E0,-2.161784624E0,3.280383875E0,4.366816782E0
9.757648375E0,-8.510721785E-1,1.033787727E0,3.842052793E0,4.068711170E0
9.767605375E0,2.510384511E0,3.201954002E0,3.804287966E0,5.570201680E0
9.777562375E0,4.709273227E0,4.344550812E0,2.589156154E0,6.910579257E0
9.787519375E0,3.703569676E0,1.320987757E0,2.593374628E-1,3.940646257E0
9.797475375E0,1.465988034E0,-8.050981531E0,-2.405991539E0,8.529725658E0
9.807432375E0,-1.516914652E0,-1.658881978E1,-3.151056621E0,1.695344005E1
9.817389375E0,-4.220219419E0,-1.491873220E1,-3.160608341E0,1.582302965E1
9.827346375E0,-9.807395943E-1,-1.021923727E1,-3.010888337E0,1.069860314E1
9.837303375E0,2.864456808E0,-9.296316842E0,2.277110428E-2,9.727648131E0
9.847260375E0,6.322848639E-1,-5.880749434E0,-2.282847716E0,6.339904711E0
9.857217375E0,-6.171294072E0,-2.239994642E0,-5.743090775E0,8.722702458E0
9.867173375E0,-8.050651748E0,-3.147267333E0,-5.875484601E0,1.045177519E1
9.877130375E0,-1.101973279E1,-2.324980997E0,-4.695838664E0,1.220208786E1
9.887087375E0,-1.098176915E1,-3.072055183E0,-1.693586518E0,1.152844361E1
9.897044375E0,-1.023505749E1,-4.486429991E0,-1.363286077E0,1.125801958E1
9.907001375E0,-7.506973543E0,-5.168407710E0,-1.255964965E0,9.200246628E0
9.916958375E0,-2.788187481E0,-5.706546847E0,-5.750169414E-1,6.377249472E0
9.926915375E0,-2.204376766E0,-3.276060444E0,-7.686786242E-1,4.022774638E0
9.936871375E0,-4.060801516E0,-1.201523294E0,-1.893702650E-1,4.239059834E0
9.946828375E0,-3.445775878E0,-1.113122749E0,5.642140643E-1,3.664798926E0
9.956785375E0,-1.836315591E0,-9.263533258E-1,3.220203455E-1,2.081797909E0
9.966742375E0,-1.168655876E0,1.322230875E-2,-5.090113784E-1,1.274764280E0
9.976699375E0,1.929683492E-1,1.213819989E0,3.630210509E0,3.832626265E0
9.986656375E0,5.202600326E-1,3.330041354E0,6.472587061E0,7.297549533E0
9.996613375E0,-2.941448558E0,3.209136722E0,-1.315283214E0,4.547598053E0
1.000656937E1,-2.909835294E0,3.276360991E0,-4.461066524E0,6.253222954E0
1.001652637E1,-4.477314182E0,3.437909034E0,-6.376979238E0,8.516538323E0
1.002648337E1,-4.115439945E0,1.766873619E0,4.757996321E-2,4.478945432E0
1.003644037E1,-2.301255920E0,2.266970771E0,1.767921879E0,3.682456117E0
1.004639738E1,1.494265096E-1,3.853761258E0,1.806808202E0,4.258915354E0
1.005635437E1,5.842395208E0,6.731242154E0,3.105404193E0,9.438577112E0
1.006631037E1,7.385632124E0,8.132306360E0,4.228664260E0,1.177130282E1
1.007626737E1,4.054347359E0,6.210416037E0,3.465947603E0,8.186561711E0
1.008622437E1,-2.096635093E0,3.970092782E0,3.554615366E0,5.726500311E0
1.009618137E1,-2.919446070E0,3.643481934E0,2.760852917E0,5.424060729E0
1.010613837E1,-1.815354346E0,4.113110999E0,1.284171934E0,4.675712892E0
1.011609537E1,2.801085269E-1,3.347983536E0,8.820203215E-1,3.473530537E0
1.012605237E1,3.400610231E0,1.850930268E0,-1.150782400E0,4.039107937E0
1.013600837E1,4.229200450E0,5.502112985E-1,-2.814867157E0,5.110024073E0
1.014596537E1,4.152434694E0,2.133146131E-1,-3.159834169E0,5.222333673E0
1.015592237E1,4.018207181E0,-3.483572280E-1,-1.521847801E0,4.310842428E0
1.016587937E1,2.779742055E0,-2.602437812E-1,1.068499723E0,2.989378594E0
1.017583637E1,1.090518583E0,-1.230753525E0,1.991724789E0,2.582818742E0
1.018579337E1,-2.637167349E-2,-6.040144533E-1,2.048488973E0,2.135845500E0
1.019574937E1,-9.808762729E-2,5.394103217E-1,2.488674384E0,2.548349440E0
1.020570637E1,3.048472193E-1,1.913683755E0,2.270672643E0,2.985141805E0
1.021566337E1,1.472470842E0,2.625997998E0,1.738445041E0,3.476525137E0
1.022562038E1,1.985801267E0,2.688347443E0,3.159696175E0,4.599380237E0
1.023557737E1,2.207605160E0,1.917798441E0,4.760489573E0,5.586925128E0
1.024553437E1,8.869012848E-1,1.546502001E0,6.210487958E0,6.461301959E0
1.025549037E1,-8.903183976E-1,1.375130635E0,7.043208650E0,7.231212845E0
1.026544738E1,-2.190152098E0,4.658804154E-1,7.224992738E0,7.564015523E0
1.027540437E1,-1.490994091E0,-3.080710816E-1,7.138743968E0,7.299290144E0
1.028536137E1,5.850516406E-1,-5.518151897E-1,6.803648225E0,6.851015589E0
1.029531837E1,3.287185649E0,-2.958427995E-1,6.117215513E0,6.950786868E0
1.030527537E1,5.805457762E0,-1.347379750E-1,5.259467568E0,7.834761850E0
1.031523237E1,7.717759820E0,1.534695303E-1,4.800385126E0,9.090163194E0
1.032518837E1,8.490146602E0,-2.687497258E-2,4.151148891E0,9.450679802E0
1.033514537E1,7.510022281E0,-1.553232147E0,3.532435123E0,8.443403500E0
1.034510237E1,7.941201811E0,-2.077381235E0,2.687404287E0,8.637148882E0
1.035505937E1,6.481038626E0,-2.592497545E0,2.765376908E0,7.508143222E0
1.036501637E1,3.970443031E0,-4.269978347E0,-5.976608688E-1,5.861256815E0
1.037497338E1,-2.421479936E0,-6.467763693E0,-4.478742657E0,8.231322376E0
1.038492937E1,-7.674308576E0,-8.099383028E0,-2.525881387E0,1.144006531E1
1.039488637E1,-9.554519945E0,-8.659692467E0,2.091070737E0,1.306337253E1
1.040484337E1,-7.822210972E0,-9.983206222E0,4.536522503E0,1.346964838E1
1.041480038E1,-3.090450231E0,-9.740071394E0,3.072094359E0,1.067040942E1
1.042475737E1,-9.311030191E-1,-8.235540707E0,9.330693647E-1,8.340365819E0
1.043471437E1,-3.549944025E-1,-7.667947390E0,-5.107326525E-1,7.693132395E0
1.044467037E1,-1.264834022E0,-7.478187701E0,-1.347490847E-2,7.584410192E0
1.045462737E1,-1.468718246E0,-6.986060888E0,9.776544571E-4,7.138780076E0
1.046458437E1,-2.394180163E0,-5.840335819E0,-1.454473697E0,6.477431193E0
1.047454137E1,-2.531880046E0,-4.511573018E0,-2.467882563E0,5.731941382E0
1.048449837E1,-1.642682559E0,-2.561077532E0,-2.637190154E0,4.026449555E0
1.049445537E1,-1.466264462E0,-1.464801196E0,-2.710154634E0,3.411819479E0
1.050441137E1,-1.829416022E0,-6.407028079E-2,-3.188955642E0,3.676996882E0
1.051436837E1,-2.253346174E0,1.850740818E0,-3.391673054E0,4.472835416E0
1.052432537E1,-3.089816101E0,2.979666837E0,-2.525403962E0,4.980265371E0
1.053427900E1,-2.177848095E0,3.982479524E0,-2.391981610E0,5.130764223E0
1.054423600E1,-3.306420065E0,4.435540504E0,-4.474121310E0,7.115068145E0
1.055419300E1,-3.659807360E0,4.920955882E0,-4.403741591E0,7.550028921E0
1.056414900E1,-3.504760251E0,5.930034446E0,-3.838348582E0,7.885529328E0
1.057410600E1,-3.696267673E0,6.711602526E0,-3.615709999E0,8.472388209E0
1.058406300E1,-3.979578428E0,7.069947383E0,-3.525771636E0,8.846031092E0
1.059402000E1,-4.464097136E0,7.192474033E0,-3.800636087E0,9.279260780E0
1.060397700E1,-4.140867440E0,7.585832602E0,-3.313765045E0,9.255953662E0
1.061393400E1,-1.995845614E0,8.104102900E0,-7.442125583E-1,8.379363691E0
1.062389000E1,-2.239302331E0,8.346158917E0,1.499637737E0,8.770504942E0
1.063384700E1,-4.275145531E0,8.744706305E0,3.617760032E-1,9.740515364E0
1.064380400E1,-5.118153230E0,7.431642694E0,-2.003567154E0,9.243326618E0
1.065376100E1,-4.928747882E0,4.938704520E0,-1.915849564E0,7.235595178E0
1.066371800E1,-4.328668604E0,4.656237227E0,-1.945117217E0,6.648413193E0
1.067367400E1,1.451444694E0,3.700382944E0,-3.478398079E0,5.281929461E0
1.068363100E1,2.840806282E0,2.202148538E0,-3.703173820E0,5.160730070E0
1.069358800E1,3.329544341E0,7.563548863E-1,-3.283808590E0,4.737228840E0
1.070354500E1,3.271353728E0,-1.179679266E0,-3.312772188E0,4.802900993E0
1.071350200E1,4.567805107E0,-2.735619258E0,-4.269319950E0,6.824628126E0
1.072345900E1,6.805311758E0,-4.607087871E0,-1.176298406E0,8.301879589E0
1.073341500E1,8.346494547E0,-5.347688019E0,7.758841188E0,1.258814343E1
1.074337200E1,7.752364227E0,-3.438702502E0,1.377734868E1,1.617835476E1
1.075332900E1,4.308885135E0,-3.636034335E0,1.262202307E1,1.382399013E1
1.076328600E1,9.037020895E-1,-3.346849176E0,6.286218756E0,7.178761949E0
1.077324300E1,-1.242728916E0,-8.478790140E-1,1.149942959E0,1.893579359E0
1.078320000E1,-2.500281107E-1,2.427175709E0,6.189523351E-1,2.517299738E0
1.079315600E1,2.432736996E0,4.032480235E0,3.194483600E0,5.690679362E0
1.080311300E1,3.727254116E0,4.012430717E0,3.948608650E0,6.751557877E0
1.081307000E1,2.933372676E0,2.729701291E0,1.520377811E0,4.285731336E0
1.082302700E1,1.417355426E0,-3.031588358E0,-3.812201003E0,5.072701535E0
1.083298400E1,-1.097504105E0,-1.437060601E1,-6.702844566E0,1.589487206E1
1.084294000E1,-4.691812564E0,-2.099185503E1,-6.745161451E0,2.254258826E1
1.085289700E1,-4.098064652E0,-1.211186871E1,-8.216369441E0,1.519869153E1
1.086285400E1,6.633951209E-1,-6.039049934E0,-4.873427082E0,7.788485650E0
1.087281100E1,4.126938495E0,-7.516648931E0,-1.396653067E0,8.688053423E0
1.088276800E1,-3.777298680E0,-4.510902343E0,-6.841827035E-1,5.923202785E0
1.089272500E1,-5.411522073E0,-3.181916179E0,-1.641862195E0,6.488826795E0
1.090268100E1,-7.537394267E0,-7.995266336E-1,-3.186748610E0,8.222342846E0
1.091263800E1,-1.101392416E1,1.181610017E0,-1.999870691E0,1.125620764E1
1.092259500E1,-1.078700425E1,-6.514798111E-1,2.253271329E-1,1.080900823E1
1.093255200E1,-8.268431879E0,-3.271616560E0,1.041614518E0,8.952954901E0
1.094250900E1,-4.889046164E0,-4.428104600E0,1.832607725E0,6.846118157E0
1.095246600E1,-2.076875744E0,-5.488291921E0,2.073908282E0,6.223813672E0
1.096242200E1,-6.192534667E-1,-5.082514451E0,1.290565864E0,5.280245093E0
1.097237900E1,9.306049825E-1,-4.089499358E0,2.870120421E-1,4.203856152E0
1.098233600E1,2.262884444E0,-3.005567079E0,-4.715381813E-1,3.791626001E0
1.099229300E1,2.601092368E0,-1.323742965E0,-6.923910248E-1,2.999563681E0
1.100225000E1,2.507458199E-1,9.707412940E-1,-2.180026913E0,2.399526926E0
1.101220600E1,-1.996703693E0,1.404093649E0,-1.622452655E0,2.930982297E0
1.102216300E1,-5.360479388E0,1.466180554E0,-1.355397160E0,5.720273258E0
1.103212000E1,-5.405612876E0,7.077165771E-1,-4.339405554E0,6.967923212E0
1.104207700E1,-5.863983128E0,3.277985932E0,-3.141537647E0,7.416248963E0
1.105203400E1,-5.799325787E0,3.909242563E0,4.334950268E-1,7.007301545E0
1.106199000E1,-2.954820848E0,4.078446951E0,1.374990302E0,5.220660313E0
1.107194700E1,3.363263772E0,6.821527841E0,2.777309321E0,8.096803836E0
1.108190400E1,7.141429594E0,7.497051988E0,3.429022436E0,1.090706193E1
1.109186100E1,3.543071500E0,5.841912228E0,3.243422456E0,7.563139782E0
1.110181800E1,-2.171235771E0,5.142794566E0,4.330136840E0,7.064891066E0
1.111177500E1,-2.082070410E0,4.596309698E0,3.844911497E0,6.343849340E0
1.112173100E1,1.014547464E-1,4.327796785E0,2.646116513E0,5.073662452E0
1.113168800E1,2.136254803E0,3.487456001E0,6.505144358E-1,4.141147543E0
1.114164500E1,3.318952987E0,2.430630829E0,-8.452179462E-1,4.199739103E0
1.115160200E1,3.572110820E0,7.428092265E-1,-2.440462922E0,4.389487502E0
1.116155900E1,3.822092153E0,-3.084950048E-1,-3.380712156E0,5.112022327E0
1.117151500E1,3.375834408E0,1.389988410E-1,-2.438984746E0,4.167040343E0
1.118147200E1,2.707372821E0,4.875057578E-1,-4.816176116E-1,2.792755804E0
1.119142900E1,2.575395609E0,7.349996853E-1,8.951151609E-1,2.823848125E0
1.120138600E1,2.396784221E0,8.065298438E-1,1.901964766E0,3.164258991E0
1.121134300E1,1.907721642E0,8.708135480E-1,2.404479157E0,3.190491829E0
1.122129900E1,1.673742092E0,1.343435218E0,3.180071383E0,3.836545943E0
1.123125600E1,1.670842165E0,2.141777791E0,3.563213696E0,4.480559953E0
1.124121300E1,2.302406213E0,2.250651777E0,3.420859723E0,4.697742973E0
1.125117000E1,1.578988254E0,2.033853393E0,3.379180770E0,4.248367475E0
1.126112700E1,5.254071173E-1,1.384928230E0,3.408064846E0,3.716044245E0
1.127108400E1,-5.918273941E-1,7.778784871E-1,4.325634484E0,4.434689200E0
1.128104000E1,-1.480842301E0,6.056370556E-2,5.687461535E0,5.877395732E0
1.129099700E1,-4.407338798E-3,-7.871580184E-2,6.327476710E0,6.327967851E0
1.130095400E1,2.357833871E0,-2.887056881E-1,6.374328110E0,6.802557636E0
1.131091100E1,4.380242216E0,4.462916583E-1,6.584957682E0,7.921323487E0
1.132086800E1,5.269714229E0,7.075470078E-1,6.474832392E0,8.378183892E0
1.133082400E1,5.356447148E0,-9.141560340E-1,5.749143813E0,7.910743447E0
1.134078100E1,4.656851184E0,-3.585457674E0,3.955612153E0,7.084393918E0
1.135073800E1,3.549518348E0,-5.298160349E0,1.793112999E0,6.624563216E0
1.136069500E1,2.403410286E0,-4.100150646E0,7.645059049E-1,4.813739253E0
1.137065200E1,6.895356832E-1,-4.523240553E0,6.986650872E-1,4.628530810E0
1.138060800E1,-6.539417812E-1,-6.413084040E0,-8.304145503E-1,6.499605764E0
1.139056500E1,2.116164063E0,-7.240862666E0,-2.090101853E0,7.827947895E0
1.140052200E1,5.265923479E-1,-7.557643175E0,-2.706342250E0,8.044846688E0
1.141047900E1,-2.773836952E0,-9.064396974E0,-1.338376354E0,9.573333547E0
1.142043600E1,-5.324376340E0,-1.028662643E1,5.513269472E-1,1.159601777E1
1.143039200E1,-5.006357975E0,-1.137603404E1,1.495127049E0,1.251851331E1
1.144034900E1,-4.479748085E0,-9.672136688E0,9.824513666E-1,1.070437208E1
1.145030600E1,-2.483043808E0,-8.823294053E0,-3.097872394E-1,9.171259054E0
1.146026300E1,-6.327935717E-1,-6.944382520E0,-1.492693730E0,7.131129704E0
1.147022000E1,4.830969572E-1,-5.417335959E0,-1.908878660E0,5.764089633E0
1.148017600E1,-6.764725649E-1,-3.257960973E0,-2.492907184E0,4.157705023E0
1.149013300E1,-1.409618975E0,1.251479566E-2,-2.095281024E0,2.525348460E0
1.150009000E1,-4.064174482E-1,8.338860422E-1,-2.506855717E0,2.672988339E0
1.151004700E1,2.854803640E-1,2.660971949E0,-3.455924306E0,4.371004868E0
1.152000400E1,-5.480646394E-2,2.905385563E0,-5.665927409E0,6.367652819E0
1.152996000E1,-9.972081310E-1,3.826370561E0,-5.625693887E0,6.876333866E0
1.153991725E1,-1.250796173E0,5.217437198E0,-3.657262360E0,6.493204905E0
1.154987425E1,-1.653882608E0,5.082015683E0,-2.812596391E0,6.039280548E0
1.155983125E1,-1.833730975E0,3.976389649E0,-3.484300843E0,5.595944630E0
1.156978825E1,-1.534884461E0,3.948286761E0,-5.195734087E0,6.703766953E0
1.157974425E1,-1.790313499E0,3.133172620E0,-6.033782762E0,7.030542476E0
1.158970125E1,-2.471881766E0,6.594327845E0,-3.430069965E0,7.833309591E0
1.159965825E1,-3.172680502E0,7.764355697E0,-4.012701150E0,9.298004704E0
1.160961525E1,-3.894768366E0,9.566710221E0,-2.587161376E0,1.064821906E1
1.161957225E1,-5.714455791E0,7.469303441E0,-1.620883847E0,9.543205086E0
1.162952825E1,-4.576922670E0,5.233300109E0,-1.871060185E0,7.199758147E0
1.163948525E1,-2.430405126E0,4.449303095E0,-2.082017493E0,5.480690098E0
1.164944225E1,-2.675908369E0,5.223085608E0,-3.027327492E0,6.603470346E0
1.165939925E1,-2.579743599E0,5.968571105E0,-3.752360598E0,7.507271683E0
1.166935625E1,-1.424011750E0,5.220216964E0,-4.056469899E0,6.762649085E0
1.167931225E1,-4.140248220E-1,3.804677390E0,-4.795166194E0,6.135194000E0
1.168926925E1,8.104055245E-1,2.156101130E0,-4.735215276E0,5.265718651E0
1.169922625E1,2.164668763E0,4.164971709E-3,-3.845727768E0,4.413097582E0
1.170918325E1,4.225158854E0,-3.071170499E0,-1.048424770E0,5.327593272E0
1.171913925E1,6.804913563E0,-4.124087393E0,4.632969694E0,9.207570450E0
1.172909625E1,9.160963740E0,-3.936259623E0,1.081480425E1,1.470977183E1
1.173905325E1,7.678592831E0,-3.888174461E0,1.015952550E1,1.331520360E1
1.174901025E1,2.702209437E0,-3.771687984E0,4.867529580E0,6.724612280E0
1.175896725E1,-1.372698194E0,-2.620752461E0,1.907215565E0,3.519959518E0
1.176892325E1,-1.477172004E0,-5.600270194E-1,2.381122161E0,2.857518178E0
1.177888025E1,1.051580658E0,2.310930723E0,4.834829611E0,5.460933991E0
1.178883725E1,4.366376129E0,3.810307674E0,6.212446775E0,8.495774244E0
1.179879425E1,2.765641202E0,5.316762680E0,3.547454573E0,6.964278183E0
1.180875125E1,1.253671687E0,2.341729177E0,-3.416586578E-1,2.678081193E0
1.181870725E1,5.504947422E-1,-3.881969980E0,-4.950672601E0,6.315211366E0
1.182866425E1,-1.890587400E0,-1.446725581E1,-3.444190406E0,1.499127276E1
1.183862125E1,-5.727041922E0,-1.906955014E1,-1.766534188E0,1.998918194E1
1.184857825E1,-3.345253178E0,-1.519544583E1,-1.945044712E0,1.568041746E1
1.185853525E1,1.717833314E0,-1.013159920E1,-6.912315220E-1,1.029942011E1
1.186849125E1,-1.114109028E0,-4.037452707E0,-3.719686649E0,5.601636551E0
1.187844825E1,-5.708063030E0,-1.214132230E0,-5.152104503E0,7.784618259E0
1.188840525E1,-4.923918082E0,-2.269689142E0,-3.591875871E0,6.503693592E0
1.189836225E1,-8.559789280E0,-1.974373761E0,-3.332967593E0,9.395574343E0
1.190831925E1,-1.110112486E1,-1.366500730E0,-1.726077595E0,1.131731599E1
1.191827525E1,-1.051347618E1,-1.779791288E0,-1.610971355E0,1.078406542E1
1.192823225E1,-7.897188064E0,-1.965757304E0,-1.730897601E0,8.320203580E0
1.193818925E1,-4.672374372E0,-2.753236919E0,-1.209589090E0,5.556482842E0
1.194814625E1,-2.014337872E0,-3.229738802E0,4.615933831E-1,3.834297620E0
1.195810225E1,-1.307670578E-1,-3.191647115E0,3.798847132E0,4.963360843E0
1.196805925E1,1.903340908E0,-3.487306312E0,4.520057913E0,6.017884634E0
1.197801625E1,1.771295283E0,-7.473209381E-2,9.318725127E-1,2.002862513E0
1.198797325E1,3.937616762E0,1.498679963E0,-7.587230086E-1,4.280949427E0
1.199793025E1,7.206868708E0,-1.193369937E-1,-1.018247144E0,7.279424781E0
1.200788625E1,3.723654277E0,1.813458971E0,-1.244893116E0,4.324811382E0
1.201784325E1,-1.159109054E0,3.669364049E0,1.613012910E-2,3.848119867E0
1.202780025E1,-2.522970935E0,3.098691005E0,3.641568725E0,5.406319549E0
1.203775725E1,-5.826828750E0,6.319525666E0,2.931151904E0,9.081849449E0
1.204771325E1,-4.937742069E0,4.684987986E0,-1.596484001E0,6.991363982E0
1.205767025E1,-9.949967140E-1,4.936453342E0,-7.587170152E-1,5.092567287E0
1.206762725E1,2.648972293E0,6.032984033E0,3.220255787E0,7.333757419E0
1.207758425E1,3.535771544E0,4.903596084E0,1.965664333E0,6.356946691E0
1.208754125E1,8.342962244E-1,3.917175481E0,1.803351474E0,4.392310380E0
1.209749725E1,-6.405257104E-1,3.100597197E0,1.879810835E0,3.682073456E0
1.210745425E1,2.749506980E-2,3.363877437E0,-2.146197116E-1,3.370829128E0
1.211741125E1,6.462730117E-1,3.342777175E0,-5.479109307E-1,3.448482918E0
1.212736825E1,8.051124787E-1,2.283241818E0,-1.035471725E-1,2.423246030E0
1.213732525E1,1.266089273E0,1.450335769E0,-7.412222922E-1,2.062975127E0
1.214728125E1,3.892732657E-1,4.221713090E-1,-1.682860240E0,1.778139723E0
1.215723825E1,1.900931270E-1,1.773057050E-1,-1.518071669E0,1.540166973E0
1.216719525E1,9.906355682E-1,1.088394874E0,-7.377198100E-1,1.646266306E0
1.217715225E1,7.146918668E-1,1.109701543E0,-1.725161592E-2,1.320045302E0
1.218710825E1,2.235563037E-1,7.663360834E-1,1.684816353E-1,8.158642504E-1
1.219706525E1,6.002216569E-1,4.696471918E-1,2.192904675E-1,7.930465505E-1
1.220702225E1,2.097320533E0,7.854213953E-1,9.948967266E-1,2.450603943E0
1.221697925E1,3.885615719E0,1.817605231E0,2.556981558E0,4.993981676E0
1.222693625E1,4.453946954E0,2.838552473E0,3.908413428E0,6.570442842E0
1.223689225E1,3.510190853E0,3.295208321E0,5.258601011E0,7.129707027E0
1.224684925E1,1.147540630E0,1.597689697E0,7.368661165E0,7.626705005E0
1.225680625E1,-1.964990149E0,2.283162296E-1,8.543245168E0,8.769284611E0
1.226676325E1,-2.888663988E0,-4.755096102E-1,8.479701136E0,8.970831644E0
1.227671925E1,-1.919557576E0,-9.308205986E-1,7.847903638E0,8.132694497E0
1.228667625E1,4.019589463E-1,-1.156205034E0,7.290072248E0,7.392126518E0
1.229663325E1,2.950493909E0,-1.436619955E0,6.428483852E0,7.217665539E0
1.230659025E1,5.461880633E0,-1.230130797E0,5.464569182E0,7.823482484E0
1.231654725E1,6.856116461E0,-1.388702023E0,4.572475863E0,8.357174268E0
1.232650325E1,6.354113116E0,-1.703333681E0,4.673402313E0,8.069497401E0
1.233646025E1,5.819035581E0,-2.231505654E0,3.830354269E0,7.315217454E0
1.234641725E1,5.910531642E0,-3.213320990E0,1.985915580E0,7.014533254E0
1.235637425E1,4.481760697E0,-3.482347289E0,9.932940048E-1,5.761905463E0
1.236633025E1,2.110831402E0,-3.860346392E0,6.881605643E-1,4.453251445E0
1.237628725E1,-5.372056291E-3,-5.348205498E0,5.980660443E-1,5.381543821E0
1.238624425E1,-2.613252237E0,-6.440137353E0,-1.290555339E0,7.068945428E0
1.239620125E1,-6.604283899E0,-7.725852367E0,-2.119622691E0,1.038258932E1
1.240615825E1,-8.143481559E0,-8.380853371E0,-1.286568707E-1,1.168638300E1
1.241611425E1,-8.429651309E0,-7.986591407E0,2.483973223E0,1.187496469E1
1.242607125E1,-5.421311481E0,-6.853008081E0,3.167108690E0,9.294348572E0
1.243602825E1,-1.627790870E0,-6.301343749E0,2.147533790E0,6.853359581E0
1.244598525E1,-6.110392982E-1,-6.219259951E0,1.053586400E-1,6.250093104E0
1.245594125E1,-1.035508563E0,-5.845379627E0,-1.610428441E0,6.150952831E0
1.246589825E1,-2.367475345E0,-4.207173404E0,-2.345561442E0,5.367206539E0
1.247585525E1,-2.757201039E0,-2.850063887E0,-1.887485890E0,4.391767835E0
1.248581225E1,-2.054502542E0,-1.322038502E0,-1.852334915E0,3.065927451E0
1.249576825E1,-1.698501542E0,-2.835197926E-2,-1.939934245E0,2.578576390E0
1.250572525E1,-1.568281418E0,9.581919998E-1,-2.653340748E0,3.227670311E0
1.251568225E1,-1.250666511E0,2.650504264E0,-2.485093549E0,3.842529053E0
1.252563925E1,-9.701828849E-1,3.300961981E0,-2.865704604E0,4.477707863E0
1.253559529E1,-1.001375734E0,3.358550624E0,-3.648728641E0,5.059232782E0
1.254555129E1,-1.406860551E0,4.520636203E0,-3.279478726E0,5.759374012E0
1.255550829E1,-1.866818907E0,4.878088775E0,-3.234892538E0,6.143719773E0
1.256546529E1,-2.492255804E0,4.857505406E0,-3.792462265E0,6.647515911E0
1.257542229E1,-2.162047895E0,4.900860756E0,-3.283204280E0,6.282699865E0
1.258537829E1,-2.578834941E0,5.255987306E0,-2.952159780E0,6.556755263E0
1.259533529E1,-3.444596495E0,5.200031206E0,-2.399444412E0,6.683030977E0
1.260529229E1,-3.445892530E0,5.148743523E0,-2.309977627E0,6.612089824E0
1.261524929E1,-3.746067824E0,6.442626513E0,-1.927453656E0,7.697761890E0
1.262520529E1,-4.036403716E0,6.698094288E0,-1.629110002E0,7.988180109E0
1.263516229E1,-4.352522905E0,6.536795921E0,-1.499632767E0,7.995189490E0
1.264511929E1,-4.855139330E0,5.913977991E0,-1.117057341E0,7.732744060E0
1.265507629E1,-3.711316652E0,4.710856653E0,-1.411784492E0,6.161101943E0
1.266503229E1,-2.426137974E0,3.595756375E0,-2.347049266E0,4.931962048E0
1.267498929E1,-1.126285709E0,2.994788321E0,-2.877272735E0,4.303019287E0
1.268494629E1,4.184437090E-1,1.849285446E0,-2.988518937E0,3.539236815E0
1.269490329E1,2.577372260E0,8.213285619E-1,-2.576214219E0,3.735546557E0
1.270486029E1,4.848207164E0,-1.202205080E-1,-1.626151896E0,5.115069468E0
1.271481629E1,6.499950861E0,-1.676656344E0,-8.965901211E-1,6.772326892E0
1.272477329E1,8.106371035E0,-2.824154874E0,1.222363648E0,8.670828968E0
1.273473029E1,7.569031212E0,-2.907837301E0,4.830438353E0,9.438161152E0
1.274468729E1,5.395998884E0,-2.251260472E0,7.324766117E0,9.372148972E0
1.275464329E1,1.754535263E0,-1.827716821E0,7.901640719E0,8.297883394E0
1.276460029E1,-8.735368887E-1,-1.641432717E0,6.877853485E0,7.124762215E0
1.277455729E1,-1.073239330E0,-1.878836104E0,6.517658569E0,6.867440643E0
1.278451429E1,4.039949468E-1,-1.160710899E0,6.457618774E0,6.573530401E0
1.279447029E1,1.714916430E0,9.644508594E-1,4.545167611E0,4.952741911E0
1.280442729E1,2.512490094E0,2.892926316E0,2.379812385E0,4.510558295E0
1.281438429E1,7.255263188E-1,2.170012241E0,-1.006010529E0,2.499479696E0
1.282434129E1,-1.418651754E0,-2.192931572E0,-5.456733913E0,6.049584009E0
1.283429729E1,-3.162686733E0,-1.007293409E1,-6.775413190E0,1.254483210E1
1.284425429E1,-4.268343465E0,-1.495968960E1,-4.921725376E0,1.631669236E1
1.285421129E1,1.865608241E-1,-1.436870216E1,-2.572198644E0,1.459830855E1
1.286416829E1,4.579013342E0,-1.211580739E1,-9.449299300E-1,1.298664870E1
1.287412429E1,-1.325105367E0,-8.575768551E0,-3.714748676E0,9.439230275E0
1.288408129E1,-6.558352266E0,-4.369135430E0,-4.355909905E0,9.004181248E0
1.289403829E1,-8.230348964E0,-3.018098831E0,-4.726027839E0,9.959061389E0
1.290399529E1,-1.141140853E1,-1.588073366E0,-3.938177510E0,1.217585577E1
1.291395129E1,-1.052191722E1,-1.475857111E0,-1.840082805E0,1.078307938E1
1.292390829E1,-8.605660102E0,-1.926543537E0,-1.017009142E0,8.877120219E0
1.293386529E1,-6.453312299E0,-3.275259376E0,-1.247708112E-1,7.237964587E0
1.294382229E1,-4.498986302E0,-5.053564301E0,1.003734062E0,6.840092979E0
1.295377929E1,-3.005180870E0,-5.894893849E0,1.530890520E0,6.791502878E0
1.296373529E1,-1.416600989E0,-5.412615502E0,2.270588882E0,6.038107220E0
1.297369229E1,-8.583295964E-1,-3.243931748E0,2.530275570E0,4.202632192E0
1.298364929E1,-8.490355933E-1,-1.927032949E0,2.594144121E0,3.341242456E0
1.299360629E1,-1.003628374E0,-1.336556554E-2,1.031868086E0,1.439513911E0
1.300356229E1,-1.616027150E-1,1.221856402E0,-1.408711195E-2,1.232577361E0
1.301351929E1,6.234944522E-1,6.170929205E-1,-1.294416840E0,1.563670029E0
1.302347629E1,-4.082274538E-1,2.358138803E0,-1.310459846E0,2.728511183E0
1.303343329E1,-2.883255606E0,4.058819017E0,1.068149475E0,5.091966026E0
1.304338929E1,-5.036196316E0,4.605340723E0,3.774762450E0,7.798799143E0
1.305334629E1,-3.711466049E0,4.795148944E0,1.421749170E0,6.228146139E0
1.306330329E1,-2.385026055E0,5.905835744E0,4.267400309E-2,6.369385071E0
1.307326029E1,-1.184968657E0,5.354184861E0,2.103429265E0,5.873317709E0
1.308321629E1,5.807995453E-1,3.885713367E0,1.235264068E0,4.118491690E0
1.309317329E1,4.085338479E-1,2.908778703E0,-1.259723117E0,3.196059414E0
1.310313029E1,-5.309037924E-1,3.174215981E0,-1.345176519E0,3.488123535E0
1.311308729E1,1.059095354E0,3.671560848E0,-1.659140571E0,4.165908000E0
1.312304329E1,2.381903349E0,4.637236115E0,-1.580513647E0,5.447517392E0
1.313300029E1,2.437722917E0,4.637006319E0,-1.188507539E0,5.371859156E0
1.314295729E1,2.645851634E0,3.458629228E0,-1.331275495E0,4.553563599E0
1.315291429E1,3.188837528E0,2.859387272E0,-1.422453467E0,4.513109152E0
1.316287029E1,2.677409642E0,2.770651097E0,-9.111933229E-1,3.959204865E0
1.317282729E1,2.672181646E0,2.197544441E0,-4.420332042E-1,3.487857462E0
1.318278429E1,2.665786546E0,3.467305326E-1,-2.074779955E-1,2.696235726E0
1.319274129E1,2.026044728E0,-2.749126911E-1,3.067028332E-1,2.067486604E0
1.320269729E1,2.660506803E0,-8.821086144E-1,9.081515282E-1,2.946379347E0
1.321265429E1,3.799854899E0,-5.727178162E-1,2.252726954E0,4.454400260E0
1.322261129E1,5.268306220E0,1.737870845E0,4.957266507E0,7.439740366E0
1.323256829E1,5.642423941E0,4.160144248E0,6.041244979E0,9.254209258E0
1.324252429E1,4.299909659E0,4.179732420E0,4.973028846E0,7.790404488E0
1.325248129E1,1.154331586E0,2.708060161E0,4.199808251E0,5.128787439E0
1.326243829E1,-2.447542146E0,9.782561356E-1,4.292121753E0,5.036839958E0
1.327239529E1,-3.673192222E0,-6.852562523E-1,5.220589432E0,6.420005548E0
1.328235129E1,-1.918466924E0,-1.531865251E0,6.324350789E0,6.784138809E0
1.329230829E1,6.261189750E-1,-6.048067510E-1,7.593822237E0,7.643556263E0
1.330226529E1,2.257176100E0,-3.958564997E-2,6.323205904E0,6.714115271E0
1.331222229E1,3.776146486E0,-1.998864824E-1,5.679386530E0,6.823098142E0
1.332217829E1,5.781794665E0,3.718109947E-1,5.375263488E0,7.903217733E0
1.333213529E1,7.915466461E0,1.493404605E0,5.509523161E0,9.759083567E0
1.334209229E1,6.690237969E0,1.393660462E-1,5.112480261E0,8.421173398E0
1.335204929E1,5.710142884E0,-5.802332425E-1,4.394448026E0,7.228663489E0
1.336200529E1,5.307296623E0,-1.258378111E0,2.666266018E0,6.071234421E0
1.337196229E1,3.612701314E0,-2.576344028E0,1.643557595E0,4.731853854E0
1.338191929E1,1.481481109E0,-3.474730121E0,4.300137408E-1,3.801768997E0
1.339187529E1,-8.476629594E-1,-4.626025248E0,-6.520364660E-1,4.748030501E0
1.340183229E1,-4.255954970E0,-5.987569293E0,-1.470973371E0,7.491855671E0
1.341178929E1,-6.254806345E0,-8.276499867E0,-2.448685861E0,1.065922675E1
1.342174629E1,-8.714458659E0,-1.116832574E1,-6.752002108E-1,1.418200214E1
1.343170229E1,-1.027085415E1,-1.537439285E1,3.281381995E0,1.877844158E1
1.344165929E1,-7.515299394E0,-1.340167093E1,3.466554544E0,1.575123833E1
1.345161629E1,-1.747612891E0,-8.823923213E0,1.849929224E0,9.183572825E0
1.346157329E1,1.084483672E0,-7.932031038E0,-1.359849522E0,8.120493331E0
1.347152929E1,8.671678090E-1,-7.755206559E0,-2.950330771E0,8.342641095E0
1.348148629E1,-4.381757230E-1,-5.282643008E0,-3.180447651E0,6.181711929E0
1.349144329E1,1.869498101E-1,-3.283740177E0,-2.836076177E0,4.342951516E0
1.350140029E1,5.015437897E-1,-1.711593457E0,-3.823625000E0,4.219147601E0
1.351135629E1,7.619986188E-1,1.767730236E-2,-4.040332168E0,4.111598036E0
1.352131329E1,1.062687225E-1,1.773829467E0,-3.938018173E0,4.320387847E0
1.353127029E1,-1.885949242E-1,4.008607807E0,-3.193258023E0,5.128489193E0
1.354122792E1,-3.973598188E-1,5.865719751E0,-2.412847692E0,6.355029269E0
1.355118392E1,-2.537615579E-1,6.273909783E0,-3.492302173E0,7.184880887E0
1.356114092E1,-5.177714577E-1,6.847142154E0,-3.355534922E0,7.642712710E0
1.357109792E1,-1.877235429E0,6.288464087E0,-3.673500370E0,7.520864206E0
1.358105492E1,-3.002868296E0,5.777434981E0,-3.306268330E0,7.302560046E0
1.359101092E1,-2.825723682E0,5.806696787E0,-3.207029678E0,7.210234480E0
1.360096792E1,-2.838432605E0,6.190013933E0,-3.024570237E0,7.451241323E0
1.361092492E1,-3.367573462E0,6.192266865E0,-2.446059000E0,7.461094060E0
1.362088092E1,-3.717852085E0,6.043832372E0,-2.163068380E0,7.418166801E0
1.363083792E1,-4.660652167E0,7.690777259E0,-1.477278569E0,9.113291691E0
1.364079492E1,-5.290878811E0,8.619378254E0,-1.488592932E0,1.022267035E1
1.365075192E1,-5.581183712E0,7.207730003E0,-1.855192595E0,9.302834138E0
1.366070792E1,-4.299685126E0,4.484123265E0,-1.526540776E0,6.397263507E0
1.367066492E1,-3.384335675E0,2.712777110E0,-1.296304321E0,4.526951790E0
1.368062192E1,-2.811752345E0,3.550955594E0,-1.689662890E0,4.834273219E0
1.369057892E1,-1.088932818E0,2.360671817E0,-2.779618387E0,3.805893389E0
1.370053492E1,2.311329795E-1,1.469721043E0,-3.658140904E0,3.949113479E0
1.371049192E1,1.742671993E0,2.975191963E-1,-3.100455109E0,3.569067838E0
1.372044892E1,3.702428885E0,-1.403379704E0,-1.439598235E0,4.213062700E0
1.373040592E1,5.713103330E0,-2.925223412E0,1.047369348E0,6.503342542E0
1.374036192E1,7.656808444E0,-3.317592047E0,4.133655192E0,9.312370149E0
1.375031892E1,9.440967017E0,-3.329853659E0,5.967213382E0,1.165450210E1
1.376027592E1,9.536000059E0,-3.545301336E0,6.808774479E0,1.224188991E1
1.377023192E1,6.806275964E0,-4.695534024E0,5.072668909E0,9.700793892E0
1.378018892E1,1.710429277E0,-4.352146930E0,1.841919124E0,5.025874776E0
1.379014592E1,-2.013247366E0,-3.531327075E0,1.304746239E0,4.269168375E0
1.380010292E1,-2.342483176E0,-1.979725133E0,3.756691046E0,4.849666653E0
1.381005892E1,5.532626680E-1,5.409855616E-1,5.650498946E0,5.703236212E0
1.382001592E1,2.847838729E0,3.066788596E0,5.169651412E0,6.651366284E0
1.382997292E1,2.304370439E0,4.977904254E0,2.503109990E0,6.029528465E0
1.383992992E1,2.282551262E-1,3.439058012E0,-2.471692901E0,4.241283557E0
1.384988592E1,-2.706933988E0,-2.148187509E0,-5.300888075E0,6.327844464E0
1.385984292E1,-4.931204297E0,-9.475982484E0,-3.385118033E0,1.120580403E1
1.386979992E1,-5.063596954E0,-1.480047109E1,-2.927749409E0,1.591432296E1
1.387975592E1,-1.678571453E0,-1.666681696E1,-1.899006952E0,1.685842866E1
1.388971292E1,1.065002942E0,-1.239480144E1,-1.021387829E0,1.248233020E1
1.389966992E1,-1.400603738E0,-6.923973398E0,-4.274581275E0,8.256824058E0
1.390962692E1,-4.906189324E0,-2.763889961E0,-4.459201847E0,7.182914625E0
1.391958292E1,-5.747334684E0,-3.384508753E-1,-2.886343813E0,6.440293904E0
1.392953992E1,-6.888284333E0,8.756667370E-1,-2.906538050E0,7.527497374E0
1.393949692E1,-8.986212684E0,2.071405381E0,-2.582507578E0,9.576642629E0
1.394945392E1,-8.549830302E0,1.209001299E0,-1.555301768E0,8.773838722E0
1.395940992E1,-6.764756640E0,-1.580980108E0,-6.807530192E-1,6.980319131E0
1.396936692E1,-3.874038524E0,-5.214594866E0,1.084872512E0,6.586131070E0
1.397932392E1,3.527270570E0,-7.866434634E0,5.802861013E0,1.039209447E1
1.398927992E1,5.046326033E0,-6.540653914E0,6.914532484E0,1.077294386E1
1.399923692E1,6.145506096E0,-5.506217145E0,7.374143515E0,1.106633024E1
1.400919392E1,3.250467181E0,-3.050726295E0,4.685249941E0,6.467150442E0
1.401915092E1,-7.454863742E-2,-2.742718363E-1,-1.908567149E0,1.929614237E0
1.402910692E1,-1.838147669E0,1.006030995E-1,-1.177002879E1,1.191312241E1
1.403906392E1,-4.026458479E0,1.525198256E0,-1.198807146E1,1.273783557E1
1.404902092E1,-3.466773230E0,2.418538202E0,-1.842754106E0,4.611245640E0
1.405897792E1,-1.052986914E0,1.861214935E0,-6.918966427E-1,2.247581687E0
1.406893392E1,-2.634696901E0,5.168923434E0,2.998107201E-1,5.809413369E0
1.407889092E1,-5.693002356E0,8.760937591E0,3.409164415E0,1.099030051E1
1.408884792E1,-5.794336942E0,7.963039992E0,1.391783506E0,9.945924182E0
1.409880392E1,-2.139309973E0,3.176826763E0,2.177045564E-1,3.836179182E0
1.410876092E1,-2.452408783E0,7.374865061E-1,-4.719170809E-2,2.561332123E0
1.411871792E1,-4.854895794E0,1.675863461E0,1.251332216E0,5.286242884E0
1.412867492E1,-2.432410721E0,2.327738544E0,9.942166954E-1,3.510477957E0
1.413863092E1,7.942945451E-2,4.158591812E0,2.138730222E-1,4.164845324E0
1.414858792E1,3.351510284E0,5.080295432E0,-6.911587241E-1,6.125334541E0
1.415854492E1,4.096265756E0,5.222778629E0,-2.744795586E-1,6.643203202E0
1.416850092E1,4.006800433E0,4.533299518E0,-3.604463464E-1,6.060955023E0
1.417845792E1,3.732638232E0,2.793578029E0,-8.840395112E-1,4.745333732E0
1.418841492E1,2.126588186E0,1.603011248E0,-2.514590706E-1,2.674930660E0
1.419837192E1,9.760258614E-1,8.841375983E-1,-1.430268417E-1,1.324682019E0
1.420832792E1,2.339459288E-1,5.048322272E-1,-1.112982416E0,1.244313519E0
1.421828492E1,3.529306278E-1,3.291350913E-1,-1.658763864E0,1.727537986E0
1.422824192E1,1.183189788E0,7.056127489E-1,-1.016479896E0,1.712033529E0
1.423819792E1,2.658413792E0,1.736834718E0,1.121897154E0,3.367849752E0
1.424815492E1,4.296853904E0,3.557437817E0,3.340148267E0,6.501915697E0
1.425811192E1,3.033278203E0,4.551817650E0,4.426890718E0,7.036844605E0
1.426806892E1,2.764284064E0,3.611932697E0,4.692226839E0,6.534854008E0
1.427802492E1,1.218935426E0,2.497675588E0,5.059278785E0,5.772390210E0
1.428798192E1,-1.929896038E0,1.469578956E0,5.423557981E0,5.941308122E0
1.429793892E1,-2.591764889E0,5.888263106E-2,6.104408941E0,6.632082699E0
1.430789492E1,-2.025236059E0,-9.819346189E-2,6.779662362E0,7.076372290E0
1.431785192E1,-4.354364486E-1,6.662498778E-1,7.569503083E0,7.611233193E0
1.432780892E1,1.308675275E0,1.383908476E0,7.494941143E0,7.733173759E0
1.433776592E1,3.671351518E0,1.822897546E0,7.160701432E0,8.250904340E0
1.434772192E1,6.478157119E0,1.550127275E0,6.889349695E0,9.582930316E0
1.435767892E1,8.360406243E0,1.075209403E0,5.667185730E0,1.015723692E1
1.436763592E1,9.105771287E0,8.637705767E-1,3.838135743E0,9.919297169E0
1.437759292E1,8.686291451E0,5.461223406E-1,2.893971798E0,9.171967159E0
1.438754892E1,7.248911358E0,-3.882352388E-1,2.525254565E0,7.685984198E0
1.439750592E1,5.216081813E0,-2.069840081E0,1.222544473E0,5.743375526E0
1.440746292E1,2.077899006E0,-3.818025999E0,-1.680147132E0,4.660244757E0
1.441741892E1,-2.848523438E0,-6.133105322E0,-4.034206917E0,7.874255019E0
1.442737592E1,-8.358034612E0,-9.811457126E0,-3.206141778E0,1.328159548E1
1.443733292E1,-1.343829438E1,-1.626607686E1,1.649106310E-1,2.109976796E1
1.444728892E1,-1.473812223E1,-2.026220671E1,1.978246810E0,2.513329919E1
1.445724592E1,-8.249374634E0,-1.506608320E1,1.351678331E0,1.722980206E1
1.446720292E1,-2.742448806E0,-1.003419628E1,1.834230035E0,1.056269475E1
1.447715992E1,-1.112771843E0,-1.017307233E1,6.667255488E-1,1.025544659E1
1.448711592E1,4.587677892E-1,-8.641429274E0,-2.202761034E0,8.929553402E0
1.449707292E1,2.563471967E0,-5.504847143E0,-4.456164803E0,7.532073774E0
1.450702992E1,5.332640795E0,-3.152853763E0,-6.085684987E0,8.684071998E0
1.451698592E1,6.035450973E0,-1.307467825E0,-6.342392957E0,8.852236383E0
1.452694292E1,4.472672662E0,1.276186391E0,-4.317980771E0,6.346527428E0
1.453690025E1,3.402563493E0,5.409646286E0,-2.069220276E0,6.717394124E0
1.454685725E1,2.153234825E0,6.091634529E0,2.663699090E-1,6.466481607E0
1.455681325E1,-4.829753351E-1,2.644378721E0,4.900364327E-1,2.732423777E0
1.456677025E1,-1.929724422E0,-7.248769855E-1,-1.154405261E0,2.362611796E0
1.457672725E1,-3.681815988E0,-1.477175658E0,-2.102302068E0,4.489709443E0
1.458668325E1,-4.189212511E0,3.025057018E-2,-4.803321890E0,6.373563975E0
1.459664025E1,-3.308983192E0,1.085720943E0,-6.855058115E0,7.688951911E0
1.460659725E1,-3.008874264E0,2.763352602E0,-6.044671447E0,7.295717569E0
1.461655425E1,-2.356565610E0,3.910863411E0,-3.489296705E0,5.746602961E0
1.462651025E1,-2.777011113E0,5.457399327E0,-2.056012001E0,6.459271126E0
1.463646725E1,-2.980272024E0,6.213087046E0,-1.664627160E0,7.089108234E0
1.464642425E1,-2.946103234E0,7.214727951E0,-2.102322534E0,8.071653096E0
1.465638025E1,-2.928214263E0,7.752374752E0,-2.727195175E0,8.724181714E0
1.466633725E1,-2.855519046E0,7.535679864E0,-3.314422857E0,8.713544566E0
1.467629425E1,-2.599019530E0,6.489753901E0,-4.090779021E0,8.099770442E0
1.468625025E1,-2.897571344E0,5.921375304E0,-4.329233153E0,7.886752493E0
1.469620725E1,-3.270320817E0,5.701351011E0,-3.593876495E0,7.491084692E0
1.470616425E1,-3.235707055E0,5.267710973E0,-3.102046722E0,6.916738603E0
1.471612125E1,-2.762973703E0,4.946650302E0,-3.217897313E0,6.515998466E0
1.472607725E1,-1.868109680E0,4.301887772E0,-2.769418504E0,5.446627491E0
1.473603425E1,-7.159719685E-1,3.284231343E0,-2.354001898E0,4.103671078E0
1.474599125E1,1.207778938E0,1.370814806E0,-1.644879650E0,2.458351533E0
1.475594725E1,2.644172314E0,9.681655955E-1,1.694675124E-1,2.820941524E0
1.476590425E1,3.583212928E0,-6.187354034E-1,3.315651649E0,4.920954607E0
1.477586125E1,4.621082597E0,-1.925720834E0,5.792621954E0,7.656191886E0
1.478581725E1,4.756913416E0,-3.606055076E0,7.563576930E0,9.635328455E0
1.479577425E1,3.963229321E0,-5.305233141E0,6.897867919E0,9.562074417E0
1.480573125E1,3.811727963E0,-8.112485468E0,4.420208520E0,9.993994892E0
1.481568825E1,2.391145751E0,-7.296490152E0,3.202542232E0,8.319412436E0
1.482564425E1,2.403010921E0,-3.941645494E0,3.076113151E0,5.547387024E0
1.483560125E1,3.795220104E0,-8.611942935E-1,4.240194092E0,5.755397222E0
1.484555825E1,4.556517642E0,1.618827966E0,4.568496832E0,6.652339461E0
1.485551425E1,4.755403665E0,2.725829265E0,2.405220876E0,5.985741112E0
1.486547125E1,3.805787777E0,8.680086386E-1,-1.344512860E0,4.128580195E0
1.487542825E1,8.197851893E-1,-4.428888711E0,-3.200010973E0,5.525140107E0
1.488538425E1,-3.548559989E0,-9.564519854E0,-2.495679349E0,1.050241560E1
1.489534125E1,-6.505993373E0,-1.136968630E1,-3.497448893E0,1.355838726E1
1.490529825E1,-4.189912131E0,-9.719831257E0,-5.286595141E0,1.183125401E1
1.491525525E1,1.224174531E0,-5.081778871E0,-2.282977524E0,5.703951801E0
1.492521125E1,2.484206819E0,-4.103357844E0,-2.427444681E0,5.375994493E0
1.493516825E1,-3.357208103E-1,-3.276615345E0,-2.001477360E0,3.854196181E0
1.494512525E1,-2.791604594E0,-1.519162760E0,-1.054612586E-1,3.179942417E0
1.495508125E1,-5.790400597E0,-8.146504569E-1,6.782387164E-1,5.886629103E0
1.496503825E1,-7.785029113E0,-4.658079100E-1,-4.608585343E-1,7.812556936E0
1.497499525E1,-6.716790175E0,4.150622642E-1,-6.148192307E-1,6.757628995E0
1.498495125E1,-3.630350257E0,7.121160221E-1,1.995876019E0,4.203578631E0
1.499490825E1,-2.691452315E0,1.205362576E0,4.247906277E0,5.171220576E0
1.500486525E1,-2.026189593E0,-2.470125847E0,3.754366485E0,4.929729574E0
1.501482125E1,-8.507991135E-2,-4.498549515E0,2.009734797E-1,4.503840214E0
1.502477825E1,3.057760495E-1,-3.829929761E0,-2.382571979E0,4.520897057E0
1.503473525E1,-1.122805738E-1,-5.178715766E0,-4.172384225E0,6.651352797E0
1.504469225E1,-1.534718692E-2,-5.396024612E0,-5.539269701E0,7.733099377E0
1.505464825E1,-9.497953981E-2,-3.490674309E0,-5.407656478E0,6.437124888E0
1.506460525E1,-1.379082476E0,-4.569353449E-1,-4.323687946E0,4.561242796E0
1.507456225E1,-2.350306312E0,1.497539756E0,-1.922946037E0,3.385895235E0
1.508451825E1,-3.230883687E0,2.970456303E0,2.596078380E0,5.099200231E0
1.509447525E1,-3.997930791E0,4.820730513E0,6.930296577E0,9.340872761E0
1.510443225E1,-3.320001393E0,6.001652312E0,8.291069959E0,1.076030115E1
1.511438825E1,-4.029387642E0,4.782340034E0,8.583084002E-1,6.312165578E0
1.512434525E1,-2.066597508E0,1.843759242E0,-7.591982703E0,8.081365897E0
1.513430225E1,3.120968896E-1,1.528457494E0,-3.184647998E0,3.546204965E0
1.514425825E1,7.698122531E-1,2.294968994E0,-2.570193341E-1,2.434245782E0
1.515421525E1,7.076861715E-1,2.651618743E0,-4.984166622E-3,2.744435555E0
1.516417225E1,1.260451826E0,2.728465190E0,-4.053172946E-1,3.032745160E0
1.517412925E1,1.312355221E0,3.310235665E0,-1.990231410E-2,3.560945449E0
1.518408525E1,9.318235423E-1,3.697797890E0,3.242617294E-2,3.813535866E0
1.519404225E1,7.894722001E-1,3.737082408E0,6.578570768E-2,3.820128144E0
1.520399925E1,6.547957671E-1,3.789855283E0,2.769533694E-1,3.855964696E0
1.521395525E1,1.033475632E0,3.655873938E0,6.000365194E-1,3.846235817E0
1.522391225E1,1.585859025E0,3.064041574E0,4.479119217E-1,3.479069517E0
1.523386925E1,2.007960898E0,2.462230936E0,2.273139437E-1,3.185303719E0
1.524382525E1,2.442957783E0,1.644410704E0,6.366476908E-1,3.012880610E0
1.525378225E1,2.620529390E0,1.937635120E0,1.631485434E0,3.644632884E0
1.526373925E1,3.012961175E0,1.891788272E0,2.701255757E0,4.466943090E0
1.527369525E1,3.323538666E0,1.806922953E0,2.916905748E0,4.776946615E0
1.528365225E1,3.300723123E0,2.202722150E0,3.410538803E0,5.232449993E0
1.529360925E1,2.658852918E0,2.571056975E0,4.142041268E0,5.553047693E0
1.530356525E1,1.678500263E0,2.790500640E0,4.535385804E0,5.583366489E0
1.531352225E1,6.604754600E-1,2.375883933E0,4.746554489E0,5.348909404E0
1.532347925E1,-5.761638728E-1,1.619460050E0,4.558650706E0,4.871951551E0
1.533343625E1,-8.533666259E-1,4.646776432E-1,4.506266670E0,4.609837222E0
1.534339225E1,-8.800737834E-1,-4.288020515E-1,4.702831349E0,4.803646923E0
1.535334925E1,-3.876674742E-1,-1.141895728E0,4.887010456E0,5.033595447E0
1.536330625E1,7.923909840E-1,-1.330011765E0,4.809905562E0,5.052920570E0
1.537326225E1,2.520055221E0,-6.903953701E-1,5.319077593E0,5.926205407E0
1.538321925E1,3.993625779E0,5.500978625E-1,6.186766974E0,7.384290088E0
1.539317625E1,5.267702787E0,1.302229305E0,6.697382097E0,8.619711177E0
1.540313225E1,6.013166065E0,1.813074224E0,6.460913680E0,9.010483330E0
1.541308925E1,6.278912076E0,1.524364443E0,4.741790178E0,8.014549139E0
1.542304625E1,5.314923731E0,5.718968672E-1,3.506543067E0,6.393068479E0
1.543300225E1,3.777546017E0,-2.282823157E-1,1.998995801E0,4.279947540E0
1.544295925E1,2.393056621E0,-1.023755075E0,3.833112985E-1,2.630916570E0
1.545291625E1,5.741807896E-1,-2.393492239E0,-9.229683727E-1,2.628756225E0
1.546287225E1,-2.691478335E0,-4.457098019E0,-1.442944304E0,5.402949809E0
1.547282925E1,-6.711910089E0,-6.979439501E0,-8.105446883E-1,9.716959169E0
1.548278625E1,-9.397104129E0,-1.039282239E1,2.459811066E-1,1.401345175E1
1.549274225E1,-1.052285862E1,-1.493867705E1,2.265329458E0,1.841266800E1
1.550269925E1,-7.555886672E0,-1.658693931E1,3.563052898E0,1.857184227E1
1.551265625E1,-1.316736832E0,-1.319648394E1,2.418648714E0,1.348075836E1
1.552261225E1,2.407978423E0,-1.037262611E1,-3.770635486E-1,1.065513535E1
1.553256925E1,2.857152466E0,-8.908742339E0,-3.443427929E0,9.969263071E0
1.554252612E1,1.774236725E0,-6.447175062E0,-5.092889750E0,8.405445154E0
1.555248312E1,1.101492272E0,-3.654100478E0,-4.040476594E0,5.557984044E0
1.556243912E1,1.980297867E0,-1.089280143E0,-1.498530859E0,2.711771674E0
1.557239612E1,7.698640010E-1,-6.542110455E-1,-5.511597168E-1,1.150851730E0
1.558235312E1,-5.959891498E-1,2.367771506E-1,-3.269040277E0,3.331349699E0
1.559230913E1,-1.210471873E0,7.435904145E-1,-3.804416605E0,4.061004132E0
1.560226612E1,-3.678746492E-1,1.519151065E0,-3.889825714E0,4.192123066E0
1.561222312E1,-1.004594334E0,3.516126069E0,-2.994104197E0,4.726204846E0
1.562217912E1,-1.803737098E0,5.166262951E0,-2.166392230E0,5.885320356E0
1.563213613E1,-2.708285279E0,5.715524077E0,-1.473455367E0,6.494081563E0
1.564209312E1,-2.836939226E0,5.210057427E0,-1.274143374E0,6.067648960E0
1.565204912E1,-2.404479741E0,4.655230336E0,-2.633255562E0,5.864019711E0
1.566200612E1,-2.159269736E0,3.666528150E0,-3.213482373E0,5.332198742E0
1.567196312E1,-2.299431296E0,3.111544354E0,-2.767282516E0,4.756778855E0
1.568191912E1,-3.384701126E0,3.500505817E0,-2.234880667E0,5.357651937E0
1.569187612E1,-3.776784418E0,4.982496657E0,-1.687763130E0,6.475949186E0
1.570183313E1,-3.909469728E0,6.453264937E0,-1.603826642E0,7.713678875E0
1.571178912E1,-3.947252973E0,7.023038095E0,-2.220080487E0,8.356591859E0
1.572174612E1,-4.295387130E0,7.652902504E0,-3.109297269E0,9.310477799E0
1.573170312E1,-4.222077371E0,8.007802767E0,-3.702007300E0,9.780373231E0
1.574165912E1,-3.969524141E0,7.465468837E0,-3.808096842E0,9.273184373E0
1.575161612E1,-3.118934065E0,6.862039690E0,-3.560948193E0,8.336407526E0
1.576157312E1,-1.889959555E0,5.425891020E0,-3.272863771E0,6.612403326E0
1.577152912E1,-7.735872155E-1,3.853313946E0,-3.098624346E0,5.004791542E0
1.578148612E1,5.389785048E-1,2.597847748E0,-2.644253005E0,3.745848997E0
1.579144312E1,1.988677220E0,8.792083955E-1,-2.359692993E0,3.208737370E0
1.580139912E1,3.730212222E0,-1.435000277E-1,-1.916093978E0,4.196009010E0
1.581135612E1,5.581494784E0,-1.289305204E0,1.851333725E-1,5.731462841E0
1.582131312E1,6.779404500E0,-3.267825226E0,3.688645243E0,8.381235637E0
1.583126912E1,5.145600060E0,-4.661067612E0,7.417077280E0,1.015951705E1
1.584122612E1,9.622391501E-1,-6.434018242E0,8.394216013E0,1.062004507E1
1.585118312E1,-1.600879937E0,-8.738408854E0,5.151198769E0,1.026924801E1
1.586113913E1,-9.598305358E-1,-7.017177431E0,1.508552110E0,7.241393735E0
1.587109612E1,3.907916415E-1,-3.756188770E0,1.692057910E0,4.138203977E0
1.588105312E1,1.999463286E0,-7.651812583E-1,4.268976134E0,4.775721205E0
1.589100912E1,3.902596326E0,1.080743208E0,5.000535318E0,6.434564276E0
1.590096612E1,4.585849029E0,1.009763272E0,2.639881919E0,5.386892401E0
1.591092312E1,3.548205940E0,-3.416653236E0,-3.324127480E-1,4.936981159E0
1.592087912E1,1.928785944E-1,-9.697356899E0,-6.747686863E-4,9.699274892E0
1.593083613E1,-3.352159617E0,-1.285889962E1,-1.991361092E0,1.343703065E1
1.594079312E1,-2.179234323E0,-1.235924335E1,-5.608914717E0,1.374626796E1
1.595074912E1,1.091522111E0,-8.794732159E0,-3.437973646E0,9.505703396E0
1.596070612E1,-5.917889486E-1,-4.076884575E0,-2.158863647E0,4.651010024E0
1.597066313E1,-4.755578205E0,-1.591738400E0,-2.447998521E0,5.580488505E0
1.598061912E1,-5.914860921E0,1.107331667E0,-4.709283167E-1,6.036019932E0
1.599057612E1,-8.262979935E0,1.497162026E0,2.766987231E0,8.841637285E0
1.600053312E1,-8.404910570E0,1.047971903E0,1.862045825E0,8.672253540E0
1.601049013E1,-7.155151840E0,1.184742955E0,5.151692274E-1,7.270846791E0
1.602044612E1,-4.286637357E0,1.864529722E0,2.381995735E0,5.246487834E0
1.603040312E1,3.663464794E-1,3.655860490E-1,2.205771473E0,2.265676652E0
1.604035912E1,3.123749247E0,-3.130912671E0,1.424988382E0,4.646613326E0
1.605031612E1,2.505868999E0,-7.890870148E0,-1.897184082E0,8.493792944E0
1.606027312E1,2.585648702E0,-7.838898926E0,-6.069302258E0,1.024550367E1
1.607022912E1,1.153325134E0,-5.367553350E0,-5.997955703E0,8.131190592E0
1.608018612E1,-9.429861693E-1,-3.445558362E0,-3.707668867E0,5.148582695E0
1.609014312E1,-2.739315868E0,-5.402458888E-1,-1.720203190E0,3.279453622E0
1.610009912E1,-3.087175498E0,1.699907797E0,3.902668539E-1,3.545792900E0
1.611005612E1,-2.528805580E0,3.365166163E0,1.301531732E0,4.406039698E0
1.612001312E1,-2.980163265E0,4.988697045E0,1.141644883E0,5.922146936E0
1.612996912E1,-4.090660615E0,6.478288096E0,1.400509013E0,7.788654981E0
1.613992612E1,-4.568824276E0,6.980307813E0,1.654815824E0,8.505131853E0
1.614988312E1,-4.813515341E0,6.962478483E0,8.582309246E-1,8.507796241E0
1.615983913E1,-3.651754575E0,4.057546663E0,1.971932548E-1,5.462406208E0
1.616979612E1,-1.251161478E0,-9.730456817E-1,6.509573624E-2,1.586335525E0
1.617975312E1,-8.322353733E-1,-3.138036919E0,-1.354317471E-1,3.249343499E0
1.618970912E1,3.867477071E-1,-1.907408524E0,-1.115812469E-1,1.949418231E0
1.619966613E1,2.065200608E0,6.736787653E-1,4.642315006E-1,2.221352632E0
1.620962312E1,2.407520001E0,2.649688577E0,3.056665604E-1,3.593109260E0
1.621957912E1,2.221815794E0,3.679718884E0,3.660827699E-1,4.314025160E0
1.622953612E1,1.406467618E0,4.084661372E0,5.696474433E-1,4.357419866E0
1.623949312E1,4.529329258E-1,4.167809948E0,6.267414111E-1,4.238937696E0
1.624944912E1,9.770141870E-2,3.891831894E0,6.034642303E-1,3.939552022E0
1.625940612E1,6.621267137E-1,3.435387715E0,5.300758266E-1,3.538542203E0
1.626936313E1,1.410513161E0,2.988945783E0,1.087476131E-1,3.306836905E0
1.627931912E1,2.142871659E0,2.983490331E0,-9.423259456E-2,3.674505856E0
1.628927612E1,2.762811735E0,3.465609049E0,1.014411224E0,4.546713637E0
1.629923312E1,3.302297778E0,3.894098275E0,2.618948010E0,5.738297715E0
1.630918912E1,3.931364334E0,3.925648681E0,3.522477899E0,6.578312371E0
1.631914612E1,3.971110783E0,3.930484913E0,3.768721107E0,6.739561654E0
1.632910312E1,2.852501006E0,3.208009964E0,3.916673205E0,5.811060051E0
1.633905912E1,9.605612916E-1,2.061893131E0,4.295662826E0,4.860740725E0
1.634901612E1,-1.074998757E0,1.538688952E0,5.012343185E0,5.352267764E0
1.635897312E1,-2.322815627E0,-1.653300226E-1,5.776941476E0,6.228632215E0
1.636892912E1,-2.768544930E0,-1.260696532E0,5.925175409E0,6.660472987E0
1.637888612E1,-2.546981649E0,-1.159610453E0,5.340016472E0,6.028896072E0
1.638884312E1,-1.788761647E0,-7.458719981E-1,4.747008233E0,5.127385341E0
1.639879912E1,1.656543969E-1,-7.391629028E-1,4.610131931E0,4.671950299E0
1.640875612E1,2.712430663E0,-4.252522069E-1,5.226950033E0,5.904161768E0
1.641871312E1,5.107103747E0,2.162458223E-1,6.261042985E0,8.082693251E0
1.642866912E1,6.677683997E0,1.273681444E0,7.092881917E0,9.824596779E0
1.643862612E1,8.028601897E0,1.818368878E0,5.662015622E0,9.991162830E0
1.644858312E1,8.059784514E0,1.438951825E0,3.566970533E0,8.930508806E0
1.645853913E1,6.022030444E0,1.072144877E0,2.591564330E0,6.643082942E0
1.646849612E1,3.758897493E0,2.157213271E-1,1.616306062E0,4.097351747E0
1.647845312E1,1.678653753E0,-1.587662891E0,2.536229058E-1,2.324408840E0
1.648840912E1,-1.236641672E0,-3.965441322E0,-1.691538239E0,4.485009378E0
1.649836613E1,-5.138875178E0,-6.796133384E0,-2.784896668E0,8.963878430E0
1.650832212E1,-8.818768308E0,-1.005220454E1,-2.420136831E0,1.358950157E1
1.651827912E1,-1.061743148E1,-1.338586005E1,5.334087396E0,1.789870356E1
1.652823612E1,-6.505676454E0,-1.768692688E1,8.101499720E0,2.051305697E1
1.653819237E1,-4.943020350E0,-1.620795554E1,-1.117723485E0,1.698177196E1
1.654814937E1,-2.980018839E-1,-9.109445677E0,1.000926960E0,9.169114486E0
1.655810637E1,3.093735489E0,-6.981897086E0,-2.138023878E0,7.930273154E0
