"Time (s)","Linear Acceleration x (m/s^2)","Linear Acceleration y (m/s^2)","Linear Acceleration z (m/s^2)","Absolute acceleration (m/s^2)"
5.077108333E-2,-6.049634564E-1,1.042809981E-1,-2.374045569E-1,6.581916391E-1
6.083208334E-2,-4.886219913E-1,-3.084347785E-2,-3.870505929E-1,6.241081092E-1
7.089208334E-2,-5.765752244E-1,2.007816911E-2,-2.543398476E-1,6.305004999E-1
8.095308335E-2,-7.887589860E-1,9.546924412E-2,-8.093774378E-2,7.986275934E-1
9.101408336E-2,-9.449974653E-1,1.314851689E-1,7.748905599E-2,9.572424525E-1
1.010750834E-1,-9.015362808E-1,4.392896175E-2,2.214814192E-1,9.293822886E-1
1.111360833E-1,-1.065499809E0,-7.606116593E-2,4.296393728E-1,1.151375323E0
1.211960833E-1,-1.155983425E0,-3.969908595E-1,3.102018070E-1,1.261001420E0
1.312570833E-1,-1.040379294E0,-2.609682512E-1,3.361114043E-1,1.124039314E0
1.413180833E-1,-1.017873653E0,-1.515276700E-2,4.308696270E-1,1.105416218E0
1.513790833E-1,-9.046157169E-1,1.038401181E-1,4.286611336E-1,1.006410817E0
1.614400833E-1,-8.174685225E-1,2.533689174E-1,5.827393591E-1,1.035391595E0
1.715000834E-1,-7.693909612E-1,4.762197545E-1,8.194633001E-1,1.220765254E0
1.815610834E-1,-8.087564635E-1,6.653336191E-1,1.132248992E0,1.542317614E0
1.916220834E-1,-7.781176382E-1,6.237184006E-1,1.294867076E0,1.634372187E0
2.016830833E-1,-6.108676824E-1,3.080991483E-1,1.317439667E0,1.484497116E0
2.117440833E-1,-5.267025679E-1,4.355415523E-2,1.475888101E0,1.567660119E0
2.218050833E-1,-4.990192178E-1,-1.214112934E-1,1.661207415E0,1.738784334E0
2.318650833E-1,-3.991674855E-1,-2.852625552E-1,1.751293713E0,1.818719075E0
2.419260833E-1,-4.246538906E-1,-1.557730410E-1,2.181509621E0,2.227909422E0
2.519870833E-1,-4.449918222E-1,-2.688491285E-2,1.276522021E0,1.352127580E0
2.620480834E-1,-2.020876667E-1,1.862437588E-1,8.135558581E-1,8.587195683E-1
2.721090834E-1,1.282101434E-1,1.940106153E-1,4.480428994E-1,5.047973845E-1
2.821690834E-1,4.831703398E-1,4.198066950E-2,4.701015204E-1,6.754342258E-1
2.922300833E-1,6.966407812E-1,5.196245134E-2,5.758542627E-1,9.053267953E-1
3.022910833E-1,7.416504546E-1,5.234982938E-2,5.395980173E-1,9.186685592E-1
3.123520833E-1,7.170468329E-1,-2.739186645E-2,4.897551817E-1,8.687730503E-1
3.224130833E-1,7.150099553E-1,-2.692604801E-1,5.032604957E-1,9.148833635E-1
3.324730833E-1,6.293241262E-1,-2.870216900E-1,4.921437693E-1,8.489027012E-1
3.425340833E-1,5.605598469E-1,-3.506265324E-1,1.055575038E0,1.245554080E0
3.525950834E-1,5.879980525E-1,-4.804771122E-1,1.932407709E0,2.076246498E0
3.626560834E-1,6.937684827E-1,-5.245274037E-1,2.044453225E0,2.221763420E0
3.727170833E-1,8.633457765E-1,-5.453028533E-1,1.437501131E0,1.763272705E0
3.827780833E-1,1.033933981E0,-7.403770772E-1,7.699905932E-1,1.486628133E0
3.928380833E-1,1.172358845E0,-1.044028541E0,4.688104552E-1,1.638354082E0
4.028990833E-1,1.047368324E0,-1.160115944E0,1.831505817E-1,1.573656108E0
4.129600833E-1,7.550052758E-1,-1.097148741E0,-5.076862532E-1,1.425311776E0
4.230210833E-1,4.621148086E-1,-9.150161594E-1,-1.367749695E0,1.709252438E0
4.330820834E-1,3.295733401E-1,-7.514362085E-1,-1.995404441E0,2.157524935E0
4.431420834E-1,4.371879821E-1,-7.817329717E-1,-2.604670864E0,2.754369271E0
4.532030834E-1,6.651359832E-1,-1.056816109E0,-2.939693516E0,3.193910477E0
4.632640833E-1,8.193148539E-1,-1.333669783E0,-2.912499871E0,3.306449367E0
4.733250833E-1,7.742468546E-1,-1.498405729E0,-2.124330869E0,2.712463744E0
4.833860833E-1,4.068152051E-1,-1.314288602E0,-7.927953190E-1,1.587884618E0
4.934470833E-1,-1.537998249E-1,-6.969653016E-1,2.001548696E-1,7.412671513E-1
5.035070833E-1,-5.391995296E-1,-1.233695260E-1,5.923603678E-1,8.104609663E-1
5.135680833E-1,-5.524765098E-1,1.041739941E-1,5.867400241E-1,8.126169890E-1
5.236290834E-1,-3.348791036E-1,4.073784381E-2,1.664170200E-1,3.761624788E-1
5.336900834E-1,1.379358172E-2,-2.002206507E-1,-5.826668537E-1,6.162623096E-1
5.437510833E-1,3.253960893E-1,-4.056172568E-1,-1.426746347E0,1.518556259E0
5.538110833E-1,4.179671609E-1,-4.198558116E-1,-1.982896662E0,2.069505889E0
5.638720833E-1,4.066007584E-1,-2.192445669E-1,-1.858715835E0,1.915258968E0
5.739330833E-1,8.003888056E-2,3.379655564E-1,-1.536925431E0,1.575679765E0
5.839940833E-1,-1.508344826E-1,8.823825565E-1,-8.658334744E-1,1.245398580E0
5.940550833E-1,-3.904261905E-1,1.024049482E0,-1.721987468E-1,1.109397296E0
6.041150833E-1,-4.530475312E-1,5.706847394E-1,3.047282284E-1,7.898053118E-1
6.141760834E-1,-1.427539229E-1,1.975069579E-1,-2.732064736E-1,3.661003389E-1
6.242370834E-1,1.548445031E-1,3.931103548E-1,-6.288095713E-1,7.575711505E-1
6.342980833E-1,5.188994586E-1,8.151416230E-1,-7.056981182E-1,1.196546007E0
6.443590833E-1,7.783127891E-1,9.360219893E-1,-9.412122703E-1,1.538762002E0
6.544200833E-1,8.024893447E-1,7.199001279E-1,-1.182433305E0,1.600123077E0
6.644800833E-1,4.611636858E-1,5.744564858E-1,-8.539034003E-1,1.127751398E0
6.745410833E-1,-8.263489813E-2,4.636847860E-1,-3.661807108E-1,5.965906638E-1
6.846020833E-1,-5.025684046E-1,3.724720225E-1,-2.769691569E-1,6.841215701E-1
6.946630834E-1,-7.164867427E-1,2.757424110E-1,-4.633321989E-1,8.966960780E-1
7.047240834E-1,-6.767423408E-1,-1.993842065E-2,-6.926857245E-1,9.686027305E-1
7.147835000E-1,-5.023577587E-1,-7.017301977E-2,-8.251543951E-1,9.685903913E-1
7.248445000E-1,-2.306845712E-1,3.031202441E-1,-9.163136566E-1,9.923346064E-1
7.349055000E-1,1.061763731E-1,5.949427906E-1,-1.137469386E0,1.288047728E0
7.449665000E-1,3.216717052E-1,5.681064096E-1,-1.027319537E0,1.217211161E0
7.550275000E-1,2.168728266E-1,4.810051158E-1,-7.175632882E-1,8.906721153E-1
7.650875000E-1,-9.000487491E-2,4.241386047E-1,-3.778523380E-1,5.751233110E-1
7.751485000E-1,-2.912574496E-1,2.025346863E-1,3.954822779E-2,3.569527468E-1
7.852095000E-1,-3.725343684E-1,2.358085594E-1,3.459394044E-1,5.604119947E-1
7.952705000E-1,-3.294258076E-1,6.967381373E-1,1.901181239E-1,7.937948700E-1
8.053315000E-1,-1.238220639E-1,9.521740454E-1,-5.351781070E-2,9.616815858E-1
8.153925000E-1,1.053790687E-1,9.544687852E-1,-2.175719708E-1,9.846080299E-1
8.254525000E-1,2.248644355E-1,8.992982590E-1,-4.327699721E-1,1.023030411E0
8.355135000E-1,2.700125782E-1,6.064293534E-1,-2.860721022E-1,7.228420302E-1
8.455745000E-1,2.621816581E-1,1.586051399E-1,-1.639810699E-1,3.475407941E-1
8.556355000E-1,8.156208023E-2,8.328364670E-2,-1.654592460E-1,2.023988657E-1
8.656965000E-1,-1.454780676E-1,3.971452260E-1,-3.627308536E-1,5.571910541E-1
8.757565000E-1,-3.029234122E-1,8.289659026E-1,-6.460687977E-1,1.093778749E0
8.858175000E-1,-3.438038550E-1,1.100580179E0,-7.748584002E-1,1.389202420E0
8.958785000E-1,-3.000778648E-1,1.196532404E0,-5.803554493E-1,1.363286091E0
9.059395000E-1,-2.999810202E-1,1.317265128E0,-3.553551757E-1,1.396944283E0
9.160005000E-1,-4.161288694E-1,1.391706615E0,3.209606838E-1,1.487624381E0
9.260605000E-1,-5.839964740E-1,1.251222873E0,7.543083608E-1,1.573401304E0
9.361215000E-1,-6.682981575E-1,9.904122046E-1,5.804092437E-1,1.328312332E0
9.461825000E-1,-8.102111777E-1,1.088865575E-1,8.654697776E-1,1.190519370E0
9.562435000E-1,-1.009623451E0,-1.087145909E0,1.095731376E0,1.844411285E0
9.663045000E-1,-1.243487153E0,-1.219105872E0,8.757275480E-1,1.949199365E0
9.763645000E-1,-1.323852893E0,-7.216107309E-1,5.979877281E-1,1.622004270E0
9.864255000E-1,-1.238013282E0,-4.040390933E-1,2.529131269E-1,1.326608279E0
9.964865000E-1,-1.110304391E0,-5.483571464E-1,3.030436456E-2,1.238704870E0
1.006547500E0,-1.122256977E0,-6.058764991E-1,6.650038362E-3,1.275378876E0
1.016608500E0,-1.192131789E0,-3.855879119E-1,1.302473134E-1,1.259690677E0
1.026669500E0,-1.147742871E0,-3.672112826E-1,2.746764636E-1,1.235963180E0
1.036729500E0,-1.155060369E0,-4.706286469E-1,3.356073743E-1,1.291622270E0
1.046790500E0,-1.232618056E0,-8.328078157E-1,4.887307495E-1,1.565814126E0
1.056851500E0,-1.240830325E0,-1.012156830E0,3.332053381E-1,1.635587705E0
1.066912500E0,-1.154941086E0,-8.367552710E-1,-7.987004220E-2,1.428435339E0
1.076973500E0,-1.072875121E0,-8.837442268E-1,-4.825385481E-1,1.471362748E0
1.087033500E0,-1.098836540E0,-1.198861350E0,-5.792567575E-1,1.726339673E0
1.097094500E0,-1.141109935E0,-1.354877635E0,-2.001595473E-1,1.782663494E0
1.107155500E0,-9.617226948E-1,-9.116314986E-1,1.871073925E-1,1.338279383E0
1.117216500E0,-6.024316851E-1,-5.635718939E-1,4.618166006E-1,9.454161979E-1
1.127277500E0,-1.685492437E-1,-4.397527170E-1,7.971713752E-1,9.258906529E-1
1.137338500E0,1.639727194E-1,-2.484774292E-1,9.342862433E-1,9.805706859E-1
1.147398500E0,3.185766278E-1,-5.834205598E-2,1.166083905E0,1.210225821E0
1.157459500E0,3.281141675E-1,1.847781542E-1,1.100297467E0,1.162951585E0
1.167520500E0,1.627627295E-1,5.669167936E-2,8.626631141E-1,8.797120557E-1
1.177581500E0,-8.747568919E-2,-4.409148511E-1,8.699896753E-1,9.792547867E-1
1.187642500E0,-3.120700655E-1,-6.619890118E-1,1.038681847E0,1.270620776E0
1.197702500E0,-3.822397231E-1,-5.003722635E-1,1.100037850E0,1.267502615E0
1.207763500E0,-2.310424025E-1,-1.961726233E-1,1.018564501E0,1.062703126E0
1.217824500E0,-2.285675685E-2,3.054877818E-2,7.256406319E-1,7.266429562E-1
1.227885500E0,7.991057985E-2,1.935595027E-1,4.561775458E-1,5.019451515E-1
1.237946500E0,4.827654018E-2,3.469503880E-1,2.572897679E-1,4.346299813E-1
1.248006500E0,-1.055433115E-1,4.997460267E-1,1.987041754E-1,5.480591493E-1
1.258067500E0,-3.271765664E-1,5.253749576E-1,9.603700876E-2,6.263277567E-1
1.268128500E0,-5.652719718E-1,3.987304062E-1,-9.626505017E-2,6.984162790E-1
1.278189500E0,-7.115611944E-1,2.841743883E-1,-3.675600690E-1,8.498086965E-1
1.288250500E0,-7.194654606E-1,7.456369400E-3,-4.198604894E-1,8.330480040E-1
1.298310500E0,-7.081212775E-1,-3.978688189E-1,-1.964734626E-1,8.356657000E-1
1.308371500E0,-7.034497176E-1,-5.374693385E-1,1.420405626E-2,8.853906201E-1
1.318432500E0,-7.024170993E-1,-5.930208108E-1,1.420867556E-1,9.301892870E-1
1.328493500E0,-7.586766694E-1,-6.160325280E-1,2.484511167E-1,1.008372115E0
1.338554500E0,-7.987137245E-1,-5.927176327E-1,1.992269164E-1,1.014371318E0
1.348614500E0,-6.529082128E-1,-2.864852080E-1,8.197503984E-2,7.176927029E-1
1.358675500E0,-4.091978358E-1,1.072323802E-1,-1.485654706E-1,4.483451251E-1
1.368736500E0,-2.011277914E-1,2.306548235E-1,-4.334412324E-1,5.305896136E-1
1.378797500E0,-8.873007227E-2,2.215898851E-1,-5.614508164E-1,6.100837009E-1
1.388858500E0,-7.846961578E-2,1.653370392E-1,-6.168970388E-1,6.434716572E-1
1.398919500E0,-1.496600693E-1,3.105076164E-2,-4.900995827E-1,5.133808402E-1
1.408979500E0,-2.429563785E-1,-1.498486421E-1,-2.843805027E-1,4.029326094E-1
1.419040500E0,-4.271779143E-1,-2.591073748E-1,5.098538160E-2,5.022122174E-1
1.429101500E0,-5.810947566E-1,-3.723138553E-1,9.537510395E-2,6.966958687E-1
1.439162500E0,-6.050359984E-1,-3.270382798E-1,-2.558507681E-2,6.882421027E-1
1.449223500E0,-4.512811605E-1,1.766341522E-2,6.435679436E-2,4.561890825E-1
1.459283500E0,-2.794338313E-1,2.515245594E-1,-2.755307418E-1,4.661170022E-1
1.469344500E0,-3.039221898E-2,1.397196566E-1,-7.454515833E-1,7.590410611E-1
1.479405500E0,1.701632579E-1,2.082556021E-1,-9.740923333E-1,1.010535405E0
1.489466500E0,1.908068528E-1,3.011190346E-1,-1.351655819E0,1.397874594E0
1.499527500E0,-5.089368264E-1,5.044100583E-1,-1.566885980E0,1.722956144E0
1.509587500E0,-3.894729482E-1,1.972604978E-1,-1.666596794E0,1.722830739E0
1.519648500E0,5.265594573E-1,2.666827351E-1,-1.175523065E0,1.315385503E0
1.529709500E0,-1.056979246E-1,6.403348719E-1,-5.216184139E-1,8.326383183E-1
1.539770500E0,8.829259090E-2,4.611504565E-1,-5.682014269E-1,7.370944218E-1
1.549831500E0,-2.411852203E-2,8.059071153E-1,-2.198956543E-1,8.357165072E-1
1.559891500E0,-2.734017706E-1,6.487465301E-1,-1.430375129E-1,7.183873040E-1
1.569952500E0,-3.986256679E-1,3.691138203E-1,-6.376850599E-1,8.377288769E-1
1.580013500E0,-2.084513377E-1,2.915018266E-1,-1.262817902E0,1.312682113E0
1.590074500E0,8.707710095E-2,2.543591434E-1,-1.687431593E0,1.708714832E0
1.600135500E0,3.605634369E-1,3.959943478E-1,-1.468884307E0,1.563470058E0
1.610195500E0,6.416303956E-1,4.780205508E-1,-6.587017071E-1,1.036378864E0
1.620256500E0,1.019529877E0,5.210059181E-1,-3.429965007E-1,1.195213343E0
1.630317500E0,8.044582484E-1,1.088999623E0,-1.600301063E-1,1.363335207E0
1.640378500E0,7.613508935E-1,7.784127764E-1,-2.742197961E-1,1.122843769E0
1.650439500E0,1.855333221E-1,6.566534275E-1,1.861829478E-1,7.073050456E-1
1.660500500E0,-1.788773634E-1,5.678459892E-1,1.219512838E-1,6.077156360E-1
1.670560500E0,-3.723465266E-1,3.313253852E-1,-1.634261692E-1,5.245250800E-1
1.680621500E0,-5.345547938E-1,1.643686672E-1,-1.367616963E-1,5.757340080E-1
1.690682500E0,-6.155566377E-1,2.197355868E-1,1.001493555E-1,6.612288528E-1
1.700743500E0,-5.908831053E-1,3.528195307E-1,3.065379417E-1,7.533856748E-1
1.710804708E0,-6.081237668E-1,4.272472769E-1,4.150803906E-1,8.512617001E-1
1.720864708E0,-5.977407929E-1,6.353729247E-1,3.599832469E-1,9.437058583E-1
1.730925708E0,-2.204898776E-1,1.413709687E0,1.001610500E-1,1.434302305E0
1.740986708E0,7.305370172E-1,2.982864387E0,1.761315840E-1,3.076066745E0
1.751047708E0,8.736154606E-1,2.753171430E0,1.092954533E0,3.088317747E0
1.761108708E0,-5.121114991E-1,-4.086947925E-1,1.257952434E-1,6.671686925E-1
1.771168708E0,-4.451678965E-1,-2.355424964E0,-6.672900975E-2,2.398052122E0
1.781229708E0,-1.007120404E0,-1.714586793E0,3.779254282E-1,2.024086710E0
1.791290708E0,-1.643552333E0,-7.233682577E-1,1.757671271E0,2.512754306E0
1.801351708E0,-2.013768938E0,-4.967442124E-1,2.295678261E0,3.093890564E0
1.811412708E0,-1.815130690E0,-8.384388305E-1,2.339386198E0,3.077402619E0
1.821472708E0,-1.131034160E0,-8.725646429E-1,1.644839889E0,2.178555849E0
1.831533708E0,-3.197297353E-1,-3.676284814E-1,1.229002284E0,1.322053107E0
1.841594708E0,2.297220464E-1,3.398993768E-1,2.039918709E0,2.080762395E0
1.851655708E0,2.939903285E-1,8.325762659E-1,1.342244725E0,1.606622063E0
1.861716708E0,7.742111135E-1,4.212195285E-1,1.367315832E0,1.626770212E0
1.871776708E0,1.081339332E0,-2.258403723E-1,1.653390273E0,1.988466248E0
1.881837708E0,1.374811670E0,-7.877322149E-1,2.824661243E0,3.238725105E0
1.891898708E0,1.438515769E0,-1.963772759E-1,4.252565339E0,4.493573590E0
1.901959708E0,1.106900435E0,4.389259207E-1,4.380172634E0,4.539140540E0
1.912020708E0,8.250516303E-1,7.853538600E-1,3.834211092E0,3.999833194E0
1.922081708E0,6.431902865E-1,8.353922850E-1,2.831542246E0,3.021457514E0
1.932141708E0,6.404407065E-1,7.317150119E-1,1.724002419E0,1.979332083E0
1.942202708E0,5.723478337E-1,5.464024222E-1,6.060171247E-1,9.966917302E-1
1.952263708E0,4.700098653E-1,2.825060315E-1,-3.452944565E-1,6.480333271E-1
1.962324708E0,3.864092264E-1,2.876807443E-1,-1.025984618E0,1.133453456E0
1.972385708E0,8.529486962E-2,4.801994426E-1,-1.513773381E0,1.590401386E0
1.982445708E0,-7.701338500E-2,-3.063525119E-1,-1.121355044E0,1.164997879E0
1.992506708E0,-2.970297112E-1,-6.906593719E-1,-3.730944586E-1,8.393071502E-1
2.002567708E0,-5.767070791E-1,-3.559653327E-2,7.042485934E-1,9.109468973E-1
2.012628708E0,-1.900383459E-1,-2.260904869E-1,1.025732603E0,1.067407539E0
2.022689708E0,-5.342037416E-1,-4.193425722E-1,5.124412090E-1,8.507748369E-1
2.032749708E0,-1.014385643E0,-7.152284950E-2,6.068474293E-1,1.184211785E0
2.042810708E0,-7.465686938E-1,3.561011343E-1,7.507830745E-1,1.117071196E0
2.052871708E0,-2.979591262E-1,6.718874708E-1,3.146667409E-1,7.995170868E-1
2.062932708E0,6.169294909E-2,6.660184743E-1,-1.163683623E-1,6.789169491E-1
2.072993708E0,2.511906103E-1,4.311108246E-1,-4.740922451E-1,6.882708208E-1
2.083053708E0,3.270433961E-1,1.928848802E-1,-7.898494917E-1,8.763698874E-1
2.093114708E0,4.128441229E-1,1.935805526E-1,-4.571318114E-1,6.456649233E-1
2.103175708E0,3.865559185E-1,3.333599970E-1,3.763852715E-1,6.342083556E-1
2.113236708E0,3.502347690E-1,4.378570497E-1,7.523273242E-1,9.382854534E-1
2.123297708E0,4.134270903E-1,4.565219468E-1,8.761520559E-1,1.070969968E0
2.133357708E0,6.523454913E-1,4.053921390E-1,4.922390789E-1,9.122481774E-1
2.143418708E0,9.785417721E-1,4.117609262E-2,-6.625129223E-1,1.182439361E0
2.153479708E0,5.570398231E-1,-5.708110392E-2,-1.300645294E0,1.416061368E0
2.163540708E0,1.229599285E-1,1.878651917E-2,-1.065659146E0,1.072893980E0
2.173601708E0,-1.555868071E-1,2.321572655E-1,-7.442049569E-1,7.949498527E-1
2.183661708E0,-2.137144165E-1,4.506203520E-1,-4.416536468E-1,6.661760257E-1
2.193722708E0,-2.218661660E-1,4.918961397E-1,-3.965277600E-1,6.696421972E-1
2.203783708E0,-2.126050535E-1,4.057660684E-1,-3.625174302E-1,5.841796797E-1
2.213844708E0,-7.915836297E-2,4.737574920E-1,-3.579127479E-1,5.990106366E-1
2.223905708E0,1.304289425E-1,7.257622540E-1,-6.591998899E-1,9.890839465E-1
2.233965708E0,3.895831682E-1,8.596333793E-1,-1.087137138E0,1.439656816E0
2.244026708E0,6.471502402E-1,7.992407048E-1,-1.486533542E0,1.807587096E0
2.254087708E0,7.763637659E-1,8.169957751E-1,-1.588021325E0,1.947314696E0
2.264148708E0,7.297216230E-1,7.783146894E-1,-1.753878182E0,2.052889690E0
2.274209708E0,7.527714933E-1,5.319709092E-1,-1.794310509E0,2.017227843E0
2.284269708E0,7.012239019E-1,4.202680403E-1,-1.526202223E0,1.731367497E0
2.294330708E0,6.300980052E-1,4.979699349E-1,-1.141748963E0,1.395918424E0
2.304391708E0,5.668276235E-1,5.826455113E-1,-6.820139712E-1,1.061090196E0
2.314452708E0,4.841754030E-1,5.772853687E-1,-3.689096063E-1,8.389150824E-1
2.324513708E0,4.254852185E-1,5.460586059E-1,-2.300739026E-1,7.294872671E-1
2.334574708E0,4.474597858E-1,6.327839237E-1,-3.289462262E-1,8.419271784E-1
2.344634708E0,4.789177329E-1,6.521083868E-1,-1.753457183E-1,8.278608965E-1
2.354695708E0,6.014642633E-1,5.842961803E-1,-5.308874202E-1,9.924730421E-1
2.364756708E0,7.464228058E-1,2.890120822E-1,-1.197048420E0,1.439999968E0
2.374817708E0,8.096063563E-1,-1.001192424E-1,-1.802759151E0,1.978743761E0
2.384878708E0,8.092745268E-1,-3.306922048E-1,-2.115424975E0,2.288952908E0
2.394938708E0,7.075202568E-1,-1.995458820E-1,-1.728702410E0,1.878514173E0
2.404999708E0,5.952627794E-1,5.215511709E-2,-1.176156904E0,1.319243342E0
2.415060708E0,4.774262544E-1,1.663550395E-1,-6.128080809E-1,7.944454491E-1
2.425121708E0,2.921936984E-1,1.655066085E-1,2.502701855E-1,4.188135153E-1
2.435182708E0,7.699569717E-2,6.109024733E-2,5.236520755E-1,5.327962574E-1
2.445242708E0,5.525311813E-2,-1.044286403E-1,6.242265236E-1,6.353085871E-1
2.455303708E0,2.005093570E-1,-7.511128575E-2,5.254103333E-1,5.673638390E-1
2.465364708E0,3.612903189E-1,1.696481913E-2,2.873111272E-1,4.619157752E-1
2.475425708E0,5.546561325E-1,-2.466525131E-1,8.066175520E-2,6.123619896E-1
2.485486708E0,5.666579081E-1,-4.422421691E-1,2.180075884E-1,7.511368913E-1
2.495546708E0,4.630259509E-1,-3.619563898E-1,4.462244153E-1,7.379171283E-1
2.505607708E0,5.024674670E-1,-4.641435000E-1,9.592053223E-1,1.178124609E0
2.515668708E0,4.844195974E-1,-6.060250184E-1,1.528566837E0,1.714189384E0
2.525729708E0,3.872510793E-1,-6.511845267E-1,1.731872771E0,1.890340705E0
2.535790708E0,3.006582740E-1,-6.947401437E-1,1.596661756E0,1.767028021E0
2.545850708E0,2.110780531E-1,-7.951675344E-1,1.344516369E0,1.576251762E0
2.555911708E0,4.823222011E-2,-9.433143443E-1,1.128214413E0,1.471406151E0
2.565972708E0,-7.761447877E-4,-1.114416153E0,1.185679094E0,1.627193559E0
2.576033708E0,-4.907619260E-2,-1.343692788E0,1.261340311E0,1.843610089E0
2.586094708E0,-1.626623766E-1,-1.443857639E0,1.374414936E0,2.000050086E0
2.596154708E0,-2.829178948E-1,-1.375745470E0,1.610162977E0,2.136666316E0
2.606215708E0,-3.725973722E-1,-1.285631691E0,1.786876944E0,2.232623313E0
2.616276708E0,-4.042034731E-1,-1.237858477E0,1.699968608E0,2.141393781E0
2.626337708E0,-3.202944667E-1,-1.203617767E0,1.407941701E0,1.879782995E0
2.636398708E0,-2.685009268E-1,-1.192399884E0,8.881751007E-1,1.510882272E0
2.646458708E0,-3.226789612E-1,-1.254731495E0,3.924107355E-1,1.353683501E0
2.656519708E0,-4.177543223E-1,-1.343453052E0,3.123933434E-2,1.407252882E0
2.666580708E0,-6.553796846E-1,-1.382531164E0,-6.958829820E-2,1.531586590E0
2.676641708E0,-8.458615784E-1,-1.327564998E0,-4.004874945E-2,1.574647432E0
2.686702708E0,-8.837525591E-1,-1.263276324E0,4.821146250E-2,1.542468801E0
2.696762708E0,-8.313919855E-1,-1.165641856E0,2.329776299E-1,1.450590275E0
2.706823708E0,-7.840933464E-1,-9.080383846E-1,5.399172753E-1,1.315616490E0
2.716888583E0,-6.563829207E-1,-6.815014628E-1,5.382747924E-1,1.088587403E0
2.726949583E0,-3.685286237E-1,-6.653722107E-1,4.366425830E-1,8.770349312E-1
2.737010583E0,-8.761157300E-2,-6.065071213E-1,3.444121116E-1,7.029554599E-1
2.747070583E0,1.085875821E-1,-5.475239182E-1,2.614354438E-1,6.163782890E-1
2.757131583E0,1.892768923E-1,-5.635976216E-1,4.292616427E-1,7.333031971E-1
2.767192583E0,1.237482885E-1,-6.570261875E-1,5.590821093E-1,8.715330487E-1
2.777253583E0,-4.423780438E-2,-7.443698484E-1,6.570802742E-1,9.938802449E-1
2.787314583E0,-1.225916544E-1,-7.605034858E-1,6.411197144E-1,1.002211931E0
2.797374583E0,-1.411927529E-1,-6.589654166E-1,3.842018294E-1,7.757460019E-1
2.807435583E0,-1.327846030E-1,-5.643586367E-1,6.075198591E-2,5.829435868E-1
2.817496583E0,-9.512367368E-2,-5.484659046E-1,-3.089347154E-1,6.366349191E-1
2.827557583E0,-1.076119376E-1,-5.731914407E-1,-6.497601449E-1,8.731076696E-1
2.837618583E0,-1.585187838E-1,-6.023523822E-1,-9.276625174E-1,1.117369385E0
2.847678583E0,-1.659769987E-1,-6.720406678E-1,-1.146831363E0,1.339555597E0
2.857739583E0,-1.866777684E-1,-6.519332626E-1,-1.278255721E0,1.446998015E0
2.867800583E0,-1.985728688E-1,-5.645220664E-1,-1.182799340E0,1.325568040E0
2.877861583E0,-2.553357380E-1,-4.142702588E-1,-1.194775023E0,1.290078890E0
2.887922583E0,-2.880403115E-1,-2.871433121E-1,-1.126499425E0,1.197672516E0
2.897982583E0,-3.327752023E-1,-2.237209028E-1,-1.220734906E0,1.284906257E0
2.908043583E0,-3.242036958E-1,-2.090432221E-1,-1.280977015E0,1.337800141E0
2.918104583E0,-3.613142925E-1,-1.986033109E-1,-1.230895613E0,1.298112207E0
2.928165583E0,-3.145000952E-1,-2.182584339E-1,-1.110453495E0,1.174586744E0
2.938226583E0,-1.988118372E-1,-2.589708424E-1,-1.095965849E0,1.143561623E0
2.948286583E0,-9.265695266E-2,-2.719250563E-1,-1.078442329E0,1.116049463E0
2.958347583E0,2.167186428E-2,-1.607466826E-1,-1.019829839E0,1.032648084E0
2.968408583E0,1.241223550E-1,-8.365611434E-3,-9.415186644E-1,9.497019205E-1
2.978469583E0,1.780559393E-1,8.400519311E-2,-8.748036879E-1,8.966840483E-1
2.988530583E0,1.511228965E-1,1.861098576E-1,-7.290407878E-1,7.674473788E-1
2.998590583E0,9.387229644E-2,3.043469900E-1,-5.451318222E-1,6.313539435E-1
3.008651583E0,-1.823972913E-2,3.800087911E-1,-3.367171758E-1,5.080529751E-1
3.018712583E0,-1.011723990E-1,4.674995095E-1,-3.217664301E-1,5.764766094E-1
3.028773583E0,-1.011803658E-1,4.971136102E-1,-3.495009434E-1,6.160440872E-1
3.038834583E0,-1.132925807E-1,4.604936680E-1,-3.777850950E-1,6.063094961E-1
3.048894583E0,-1.716148292E-1,4.083172086E-1,-3.296285963E-1,5.521137600E-1
3.058955583E0,-2.893583836E-1,3.524447241E-1,-2.012319267E-1,4.984374043E-1
3.069016583E0,-3.634137353E-1,2.888960150E-1,-4.037677824E-2,4.660050801E-1
3.079077583E0,-3.181241264E-1,2.684445012E-1,1.248743069E-1,4.345791096E-1
3.089138583E0,-2.425790504E-1,3.598724422E-1,2.255645299E-1,4.891136141E-1
3.099198583E0,-2.268623925E-1,5.033935198E-1,3.704988796E-1,6.649368396E-1
3.109259583E0,-1.825524116E-1,5.246004939E-1,4.829092616E-1,7.360247388E-1
3.119320583E0,-1.000468283E-1,3.898122329E-1,5.269557524E-1,6.630575463E-1
3.129381583E0,2.787029659E-2,2.644675174E-1,6.546145034E-1,7.065691539E-1
3.139442583E0,1.500196731E-1,1.401788092E-1,9.018172395E-1,9.248947693E-1
3.149502583E0,7.317527264E-2,3.481052130E-2,1.213266258E0,1.215969327E0
3.159563583E0,-1.323637862E-1,7.630470246E-2,1.212172244E0,1.221762713E0
3.169624583E0,-2.819416291E-1,1.070215881E-1,9.440820837E-1,9.910780410E-1
3.179685583E0,-2.080677603E-1,2.831894249E-2,6.712878388E-1,7.033644275E-1
3.189746583E0,-7.282769222E-2,-1.145177186E-1,7.189566797E-1,7.316535300E-1
3.199806583E0,5.535825837E-2,-1.899400762E-1,8.325137007E-1,8.556990307E-1
3.209867583E0,2.880461953E-1,-3.095963278E-1,1.059033081E0,1.140338355E0
3.219928583E0,5.206921419E-1,-4.048720291E-1,1.390466713E0,1.538973471E0
3.229989583E0,6.924546133E-1,-5.940920207E-1,1.675127297E0,1.907482682E0
3.240050583E0,8.847633965E-1,-8.855190030E-1,1.791115006E0,2.185187208E0
3.250110583E0,1.029779973E0,-1.282048517E0,1.923080816E0,2.530283584E0
3.260171583E0,1.107781099E0,-1.679628191E0,2.042766888E0,2.867268104E0
3.270232583E0,1.186918777E0,-1.796401912E0,2.190199753E0,3.071288161E0
3.280293583E0,1.239468800E0,-1.548644860E0,2.386929908E0,3.103549290E0
3.290354583E0,1.252371559E0,-1.289407823E0,2.387266123E0,2.988318356E0
3.300414583E0,1.220092590E0,-1.245927781E0,2.260556375E0,2.855009122E0
3.310475583E0,1.047603455E0,-1.271220351E0,1.985981653E0,2.580232026E0
3.320536583E0,8.697682120E-1,-1.338863134E0,1.645295388E0,2.292607281E0
3.330597583E0,7.687425050E-1,-1.356145019E0,1.022280407E0,1.864175845E0
3.340658583E0,8.877890383E-1,-1.469243910E0,7.546094924E-1,1.875175333E0
3.350718583E0,1.265939584E0,-1.118541949E0,3.950834978E-1,1.734886190E0
3.360779583E0,1.533048874E0,-7.857295436E-1,3.471018308E-1,1.757296061E0
3.370840583E0,1.630048919E0,-6.949303244E-1,4.571692336E-1,1.830024957E0
3.380901583E0,1.710137793E0,-5.763720337E-1,1.644032389E-1,1.812127042E0
3.390962583E0,1.739476198E0,-5.307621436E-1,3.894479513E-2,1.819066407E0
3.401022583E0,1.619626549E0,-7.853485975E-1,-6.357525551E-1,1.908964088E0
3.411083583E0,1.521592716E0,-9.474185050E-1,-1.036687946E0,2.070644372E0
3.421144583E0,1.356743774E0,-7.575732999E-1,-1.356217816E0,2.062522179E0
3.431205583E0,1.224769339E0,-3.275946423E-1,-1.234858271E0,1.769817260E0
3.441266583E0,1.349757959E0,1.812389807E-1,-5.310739464E-1,1.461757043E0
3.451326583E0,1.365218582E0,4.725403941E-1,-2.429716909E-1,1.464974895E0
3.461387583E0,1.305714245E0,-7.350509946E-1,-1.445659166E0,2.082095118E0
3.471448583E0,2.311531232E0,-2.342918647E0,-3.116306326E0,4.532527942E0
3.481509583E0,2.514024988E0,-1.333041646E0,-3.123124180E0,4.225071161E0
3.491570583E0,2.134419655E0,-1.217460465E-1,-2.447023498E0,3.249383535E0
3.501630583E0,1.638191898E0,5.972049321E-1,-1.972576911E0,2.632752570E0
3.511691583E0,1.131843634E0,1.086076161E0,-1.757161394E0,2.355471843E0
3.521752583E0,7.638475084E-1,1.322796594E0,-1.683914493E0,2.273504313E0
3.531813583E0,4.350002463E-1,7.189189652E-1,-9.754015249E-1,1.287430708E0
3.541874583E0,-1.319711603E0,-1.411318322E0,2.448521554E0,3.119088957E0
3.551934583E0,-2.325334754E0,-1.153922866E0,2.597392834E0,3.672215848E0
3.561995583E0,-4.857147557E-1,1.697733948E0,-1.035352442E0,2.046991466E0
3.572056583E0,1.249805508E0,3.092809290E0,-1.382714474E0,3.611008506E0
3.582117583E0,1.543043958E0,2.370113024E0,-8.814543110E-1,2.962327143E0
3.592178583E0,1.088856220E0,9.505534896E-1,-7.473145062E-1,1.627156653E0
3.602238583E0,4.520169595E-1,8.600084782E-2,-7.031715363E-1,8.403366510E-1
3.612299583E0,1.261282423E-1,8.791522622E-2,-7.440125835E-1,7.597316269E-1
3.622360583E0,1.231195575E-1,3.447088578E-1,-5.858512473E-1,6.907997583E-1
3.632421583E0,2.027598041E-1,6.328795257E-1,-3.576507926E-1,7.546933958E-1
3.642482583E0,2.919973782E-1,7.775470962E-1,-2.912065423E-1,8.801381743E-1
3.652542583E0,3.775335185E-1,7.333960864E-1,-5.716916299E-1,1.003609833E0
3.662603583E0,5.081841436E-1,5.863935766E-1,-8.169823265E-1,1.126751380E0
3.672664583E0,6.106330629E-1,1.285462122E-1,-7.996225280E-1,1.014294362E0
3.682725583E0,5.153525376E-1,-2.292061758E-1,-6.220788413E-1,8.397057782E-1
3.692786583E0,-1.528014860E-1,5.931722537E-1,-9.471594733E-1,1.127968388E0
3.702846583E0,-7.452395486E-1,1.657563138E0,-1.749616147E0,2.522707713E0
3.712903958E0,-1.317282377E0,2.440847084E0,-2.581399530E0,3.789009222E0
3.722964958E0,-1.558845766E0,2.847519471E0,-2.220131650E0,3.932855426E0
3.733025958E0,-1.068781413E0,2.523167987E0,-1.912165233E0,3.341413814E0
3.743086958E0,8.601619676E-3,1.956723502E0,-1.688425620E0,2.584496455E0
3.753146958E0,1.653407084E0,1.074923913E0,1.938820935E0,2.765545701E0
3.763207958E0,1.567318089E0,2.146208811E-1,1.942614609E-1,1.593827353E0
3.773268958E0,8.873295933E-1,5.615478802E-1,-2.038245821E-1,1.069688875E0
3.783329958E0,4.406004537E-1,1.493671677E0,8.182201821E-1,1.759166878E0
3.793390958E0,9.283302695E-2,2.064269293E0,-2.445638877E-1,2.080778023E0
3.803450958E0,4.928255546E-1,1.756521124E0,-1.305639986E0,2.243421329E0
3.813511958E0,7.614450337E-1,1.038340808E0,-2.539738119E-1,1.312422520E0
3.823572958E0,2.514494227E-1,7.531617218E-1,1.755912428E0,1.927098297E0
3.833633958E0,-3.452842239E-1,9.001678862E-1,3.183904817E0,3.326676014E0
3.843694958E0,-6.047782458E-1,8.049008095E-1,3.748281580E0,3.881138602E0
3.853754958E0,-5.952671649E-1,2.526416700E-1,3.916013054E0,3.969046366E0
3.863815958E0,-3.734050919E-1,-5.262426844E-1,4.127154257E0,4.177291585E0
3.873876958E0,-1.263274862E-1,-9.659739129E-1,4.957158333E0,5.051978125E0
3.883937958E0,2.768700466E-2,-8.586932932E-1,5.125790278E0,5.197292249E0
3.893998958E0,1.932591020E-1,-6.400511357E-1,4.645391811E0,4.693258955E0
3.904058958E0,1.473336084E-1,-3.678417586E-1,4.278830447E0,4.297139135E0
3.914119958E0,7.564440563E-2,-5.103186697E-2,3.442910743E0,3.444119729E0
3.924180958E0,1.744011006E-1,1.241318567E-1,2.878146309E0,2.886096090E0
3.934241958E0,2.958677964E-1,-9.993476272E-3,2.555794573E0,2.572882337E0
3.944302958E0,3.527294835E-1,-2.814218116E-1,1.971088210E0,2.022079390E0
3.954362958E0,2.506056695E-1,-5.534489018E-1,1.749358284E0,1.851854016E0
3.964423958E0,5.840228230E-2,-7.126919729E-1,1.627297073E0,1.777480362E0
3.974484958E0,-1.419388211E-1,-8.005512120E-1,1.307757263E0,1.539888934E0
3.984545958E0,-2.724640234E-1,-8.880109401E-1,9.715949875E-1,1.344171452E0
3.994606958E0,-5.316607144E-1,-9.680996682E-1,8.080670768E-1,1.368522007E0
4.004666958E0,-7.122205411E-1,-1.001762527E0,5.669922227E-1,1.353612367E0
4.014727958E0,-7.479369423E-1,-1.018800437E0,3.853391129E-1,1.321306259E0
4.024788958E0,-8.458149469E-1,-1.098750001E0,1.466534311E-1,1.394331997E0
4.034849958E0,-8.432101585E-1,-1.114396858E0,-1.333925307E-1,1.403808140E0
4.044910958E0,-6.941010430E-1,-1.018867680E0,-4.850049037E-1,1.324800877E0
4.054970958E0,-7.175525440E-1,-1.045874214E0,-5.628447926E-1,1.387634241E0
4.065031958E0,-8.735934605E-1,-1.038134547E0,-5.845017099E-1,1.477339203E0
4.075092958E0,-8.814674672E-1,-1.033209584E0,-5.716623938E-1,1.473534809E0
4.085153958E0,-7.576621044E-1,-1.060863990E0,-3.852905810E-1,1.359387032E0
4.095214958E0,-5.868621578E-1,-1.199286442E0,-2.815048420E-1,1.364529274E0
4.105274958E0,-4.465035468E-1,-1.403436714E0,-3.201812500E-1,1.507154956E0
4.115335958E0,-3.302980294E-1,-1.569008958E0,-4.653342855E-1,1.669557395E0
4.125396958E0,-2.309011740E-1,-1.597668647E0,-6.220940441E-1,1.729988860E0
4.135457958E0,-1.281879240E-1,-1.530894906E0,-7.510836214E-1,1.710028644E0
4.145518958E0,-6.011898827E-2,-1.418907862E0,-1.042184914E0,1.761551364E0
4.155578958E0,1.391564235E-2,-1.230210612E0,-1.537959804E0,1.969500483E0
4.165639958E0,8.030394215E-2,-9.674702154E-1,-1.946064466E0,2.174767631E0
4.175700958E0,6.499282524E-2,-7.531583597E-1,-2.138196956E0,2.267897221E0
4.185761958E0,-1.949220501E-2,-5.636256883E-1,-2.425783487E0,2.490477743E0
4.195821958E0,-2.722118257E-1,-2.642883003E-1,-2.526411729E0,2.554741437E0
4.205882958E0,-7.352802785E-1,1.386478619E-1,-2.161358362E0,2.287210153E0
4.215943958E0,-1.212713550E0,4.937274876E-1,-1.647317939E0,2.104304488E0
4.226004958E0,-1.380888973E0,5.527979605E-1,-1.159674187E0,1.886076394E0
4.236065958E0,-1.243121848E0,2.562631430E-1,-8.870360631E-1,1.548501116E0
4.246125958E0,-1.097856839E0,-2.947142869E-2,-6.900591552E-1,1.297050439E0
4.256186958E0,-1.025301663E0,3.414978594E-2,-3.782949722E-1,1.093396906E0
4.266247958E0,-9.604731448E-1,3.567488596E-1,-1.396999222E-1,1.034066961E0
4.276308958E0,-8.796040327E-1,6.105061783E-1,-8.238726854E-3,1.070742231E0
4.286369958E0,-7.993501208E-1,6.454751591E-1,2.229134023E-2,1.027665169E0
4.296429958E0,-6.601881424E-1,5.900078867E-1,-3.266956329E-1,9.437625371E-1
4.306490958E0,-4.391671915E-1,5.740237918E-1,-6.035069150E-1,9.415900021E-1
4.316551958E0,-3.528419694E-1,5.933666736E-1,-3.146141160E-1,7.586590187E-1
4.326612958E0,-4.801362196E-1,5.912419416E-1,-4.641519785E-2,7.630545154E-1
4.336673958E0,-5.684388238E-1,4.802303597E-1,-2.442545700E-1,7.832012448E-1
4.346733958E0,-6.635374276E-1,3.646572188E-1,-2.862060034E-1,8.094261432E-1
4.356794958E0,-7.273076731E-1,3.660821852E-1,-4.639882565E-2,8.155645092E-1
4.366855958E0,-6.971749974E-1,4.004224442E-1,1.468808877E-1,8.172913226E-1
4.376916958E0,-6.591518696E-1,4.007415560E-1,1.992403650E-1,7.967256146E-1
4.386977958E0,-6.407761174E-1,4.160904971E-1,1.757012290E-1,7.839618972E-1
4.397037958E0,-7.476194385E-1,4.046030572E-1,3.267400718E-1,9.107126513E-1
4.407098958E0,-8.549726368E-1,3.153293766E-1,5.867505491E-1,1.083829799E0
4.417159958E0,-9.692127588E-1,2.346965651E-1,9.733023745E-1,1.393475282E0
4.427220958E0,-9.816783647E-1,1.743617781E-1,1.126546787E0,1.504394265E0
4.437281958E0,-8.574720291E-1,-5.406511009E-2,9.445112693E-1,1.276825303E0
4.447341958E0,-9.213403617E-1,-1.952069557E-1,8.749182934E-1,1.285478836E0
4.457402958E0,-1.004749870E0,-9.622002661E-2,6.664100915E-1,1.209497005E0
4.467463958E0,-9.655650464E-1,8.335556746E-2,6.257508928E-1,1.153615269E0
4.477524958E0,-8.359479167E-1,1.097171545E-1,6.206708318E-1,1.046937942E0
4.487585958E0,-6.112297712E-1,-4.038642615E-2,6.379177791E-1,8.844048787E-1
4.497645958E0,-3.761089906E-1,-2.413371018E-1,6.844604462E-1,8.174274720E-1
4.507706958E0,-1.546063752E-1,-3.213755438E-1,9.736923838E-1,1.036948518E0
4.517767958E0,-4.774734889E-2,-3.411116508E-1,1.118820861E0,1.170639606E0
4.527828958E0,-3.975083381E-3,-2.947929320E-1,1.027037702E0,1.068515379E0
4.537889958E0,-1.015151281E-1,-1.879356506E-1,7.739842415E-1,8.029176397E-1
4.547949958E0,-3.463601115E-1,-1.168031028E-1,5.284731048E-1,6.425668169E-1
4.558010958E0,-5.193111026E-1,-1.340807480E-1,1.747680134E-1,5.640970899E-1
4.568071958E0,-5.289428555E-1,-2.072820407E-1,-1.942871886E-1,6.004114427E-1
4.578132958E0,-3.771112034E-1,-3.821132040E-1,3.283211589E-3,5.368744172E-1
4.588193958E0,-2.286998800E-1,-5.359630957E-1,5.977842450E-1,8.348090073E-1
4.598253958E0,-2.396415554E-2,-6.705899736E-1,1.140359080E0,1.323134167E0
4.608314958E0,2.145251329E-1,-9.166674131E-1,1.663168572E0,1.911133139E0
4.618375958E0,4.874298902E-1,-1.203333885E0,2.058744990E0,2.433933292E0
4.628436958E0,6.598268576E-1,-1.394175017E0,2.171050707E0,2.663185429E0
4.638496958E0,6.923737755E-1,-1.472189738E0,1.832379976E0,2.450375572E0
4.648557958E0,6.641682690E-1,-1.420072920E0,1.426372710E0,2.119496566E0
4.658618958E0,6.252915940E-1,-1.349620695E0,1.014141083E0,1.800263240E0
4.668679958E0,4.750454874E-1,-1.360483360E0,5.785422277E-1,1.552834279E0
4.678740958E0,2.964528103E-1,-1.266006389E0,2.349995971E-1,1.321317999E0
4.688800958E0,1.309695907E-1,-1.145313718E0,2.455830574E-2,1.153039313E0
4.698861958E0,4.194989853E-2,-1.043453760E0,-1.254216063E-1,1.051801370E0
4.708922958E0,-5.463565215E-3,-9.922219178E-1,-4.308520854E-2,9.931719488E-1
4.718983958E0,-1.381404698E-4,-9.849740016E-1,3.652755618E-2,9.856510870E-1
4.729044958E0,1.354746511E-1,-1.140124606E0,2.067932135E-1,1.166619446E0
4.739104958E0,4.246302824E-1,-1.357453333E0,6.194733220E-1,1.551366374E0
4.749165958E0,7.339485021E-1,-1.465307272E0,8.962787569E-1,1.867919007E0
4.759226958E0,9.524657484E-1,-1.515500356E0,8.347455829E-1,1.975027220E0
4.769287958E0,1.041857908E0,-1.347313676E0,6.609873837E-1,1.826917175E0
4.779348958E0,8.844950093E-1,-1.151362078E0,4.930097419E-1,1.533305143E0
4.789408958E0,6.630076698E-1,-1.026779839E0,1.976879293E-1,1.238118139E0
4.799469958E0,4.419013495E-1,-9.074358290E-1,-2.068423301E-1,1.030291384E0
4.809530958E0,3.093709177E-1,-7.683539575E-1,-6.323208243E-1,1.042068997E0
4.819591958E0,1.645496386E-1,-5.681362304E-1,-9.130596811E-1,1.087903186E0
4.829652958E0,-2.860837966E-2,-5.441293171E-1,-1.157262796E0,1.279121703E0
4.839712958E0,-4.122510691E-1,-5.218856317E-1,-1.478214709E0,1.620936236E0
4.849773958E0,-8.609935878E-1,-5.851940203E-1,-1.947425113E0,2.208217963E0
4.859834958E0,-8.293995468E-1,-3.070364168E-1,-1.821224073E0,2.024606652E0
4.869895958E0,-1.163111327E-1,7.408363760E-2,-1.389104896E0,1.395933049E0
4.879956958E0,3.813983819E-1,6.628891906E-1,-1.537220131E0,1.716954436E0
4.890016958E0,6.047580729E-1,8.831017640E-1,-1.698626087E0,2.007718017E0
4.900077958E0,4.551210270E-1,2.284162170E-1,-1.672460967E0,1.748266228E0
4.910138958E0,2.595679893E-1,-4.472912398E-1,-1.405364833E0,1.497496347E0
4.920199958E0,2.303481370E-1,-6.905409658E-1,-1.087610178E0,1.308740994E0
4.930260958E0,3.218413476E-1,-5.590832788E-1,-9.625569463E-1,1.158737175E0
4.940320958E0,4.910714630E-1,-2.981349081E-1,-1.091306788E0,1.233282656E0
4.950381958E0,5.374974782E-1,-3.639511675E-2,-1.250934606E0,1.362007904E0
4.960442958E0,5.312017080E-1,1.008735332E-1,-1.088322954E0,1.215235605E0
4.970503958E0,4.019905213E-1,1.220986336E-1,-7.718774897E-1,8.788056182E-1
4.980563958E0,2.157007156E-1,9.685328007E-3,-7.157044584E-1,7.475650313E-1
4.990624958E0,1.103936043E-1,-2.307784921E-1,-9.628563237E-1,9.962618935E-1
5.000685958E0,1.427032349E-1,-3.568488470E-1,-1.348560303E0,1.402255399E0
5.010746958E0,3.428594566E-1,3.516690910E-2,-3.075673440E0,3.094924301E0
5.020807958E0,7.507121039E-1,2.611065379E-1,-4.351116650E0,4.423116705E0
5.030867958E0,8.034260686E-1,-6.362279338E-1,-6.717047453E-1,1.225343501E0
5.040928958E0,3.303211990E-1,-1.232334905E0,3.737958321E0,3.949695409E0
5.050989958E0,-9.137889750E-2,-7.020324987E-1,2.169596504E0,2.282180694E0
5.061050958E0,8.854555607E-2,5.070711261E-1,-1.987793705E0,2.053359505E0
5.071111958E0,2.592111629E-1,1.245738477E0,-2.597673501E0,2.892570206E0
5.081171958E0,2.868761674E-1,1.205512265E0,-1.292635778E0,1.790660496E0
5.091232958E0,2.843164757E-1,7.070423931E-1,-4.263298488E-1,8.732135729E-1
5.101293958E0,2.653519819E-1,2.768033883E-1,-3.445366573E-1,5.154971371E-1
5.111354958E0,3.518676040E-1,9.561425507E-2,-3.280305523E-1,4.904660434E-1
5.121415958E0,4.758362503E-1,5.633353740E-2,-6.831477463E-2,4.840046621E-1
5.131475958E0,5.086068973E-1,7.283905774E-2,2.376279205E-1,5.660861533E-1
5.141536958E0,5.058905002E-1,3.011628887E-1,3.934182107E-1,7.080975725E-1
5.151597958E0,4.841725525E-1,7.455846074E-1,3.593412226E-1,9.588772506E-1
5.161658958E0,4.863397499E-1,1.112709059E0,3.528683549E-1,1.264580515E0
5.171719958E0,4.689609479E-1,1.238658961E0,4.009733981E-1,1.383828045E0
5.181779958E0,4.841239475E-1,1.266963578E0,5.233088440E-1,1.453762309E0
5.191840958E0,6.263859004E-1,1.214120828E0,8.893726104E-1,1.630163281E0
5.201901958E0,7.891182243E-1,1.074354248E0,1.193540091E0,1.789268725E0
5.211962958E0,8.549155533E-1,8.725431544E-1,1.312581800E0,1.793065292E0
5.222023958E0,9.717053537E-1,6.632944027E-1,1.407227172E0,1.834246186E0
5.232083958E0,1.077905700E0,5.477309096E-1,1.354297591E0,1.815492168E0
5.242144958E0,1.101743044E0,5.288227683E-1,1.097950394E0,1.642859192E0
5.252205958E0,9.887688446E-1,5.831969038E-1,9.686783963E-1,1.502038712E0
5.262266958E0,7.880849482E-1,6.206515360E-1,1.160056595E0,1.533628873E0
5.272327958E0,6.004767416E-1,5.897665429E-1,1.349704603E0,1.590628620E0
5.282387958E0,3.843018899E-1,5.790737396E-1,1.380884880E0,1.545916360E0
5.292448958E0,1.246372754E-1,6.602936116E-1,1.359174169E0,1.516204645E0
5.302509958E0,-1.524909257E-1,8.014971453E-1,1.467830638E0,1.679338542E0
5.312570958E0,-3.372941498E-1,8.055998442E-1,1.580490696E0,1.805743419E0
5.322631958E0,-3.639088482E-1,6.092342627E-1,1.469083697E0,1.631503277E0
5.332691958E0,-3.250174090E-1,2.264328414E-1,1.237322288E0,1.299182278E0
5.342752958E0,-2.308811655E-1,-1.834543446E-1,1.139378502E0,1.176921824E0
5.352813958E0,-1.797571501E-1,-5.180530742E-1,1.177207648E0,1.298656794E0
5.362874958E0,-1.642360816E-1,-7.223796397E-1,1.219872442E0,1.427198167E0
5.372934958E0,-1.638502750E-1,-8.305189231E-1,1.247835581E0,1.507880046E0
5.382995958E0,-2.699667872E-1,-8.543501276E-1,1.189434176E0,1.489144004E0
5.393056958E0,-4.537062201E-1,-8.814177659E-1,1.101825929E0,1.482149449E0
5.403117958E0,-6.233371621E-1,-9.763990599E-1,1.011496972E0,1.537865555E0
5.413178958E0,-7.447660703E-1,-1.058308026E0,8.573784006E-1,1.552349864E0
5.423238958E0,-8.025203349E-1,-1.157084748E0,7.135006428E-1,1.578596582E0
5.433299958E0,-8.071358346E-1,-1.249397080E0,5.544043368E-1,1.587395820E0
5.443360958E0,-7.073134115E-1,-1.305438842E0,5.840649229E-1,1.595491982E0
5.453421958E0,-6.428756332E-1,-1.258012953E0,6.551582944E-1,1.557279056E0
5.463482958E0,-5.900931099E-1,-1.165768155E0,7.183362901E-1,1.491050736E0
5.473542958E0,-4.993206783E-1,-1.085395545E0,7.300722367E-1,1.400146457E0
5.483603958E0,-4.204136360E-1,-1.141489054E0,6.817169327E-1,1.394447153E0
5.493664958E0,-4.179697191E-1,-1.300216547E0,5.499779946E-1,1.472323860E0
5.503725958E0,-4.112579195E-1,-1.416591926E0,3.760706913E-1,1.522266378E0
5.513786958E0,-4.050349472E-1,-1.409805794E0,3.373311335E-1,1.505123908E0
5.523846958E0,-3.484523184E-1,-1.252816240E0,5.330970830E-1,1.405403874E0
5.533907958E0,-2.789016982E-1,-1.023216254E0,8.140873700E-1,1.336972664E0
5.543968958E0,-1.689047544E-1,-8.092508456E-1,9.589439517E-1,1.266092117E0
5.554029958E0,-3.002124969E-2,-6.938342638E-1,8.921319115E-1,1.130577998E0
5.564090958E0,9.709542789E-2,-6.883435822E-1,6.548138934E-1,9.550003373E-1
5.574150958E0,1.878680422E-1,-7.389532802E-1,3.662543857E-1,8.458656079E-1
5.584211958E0,2.164106407E-1,-8.073624873E-1,-8.846252561E-2,8.405315995E-1
5.594272958E0,2.134930263E-1,-8.687151285E-1,-5.789643967E-1,1.065572625E0
5.604333958E0,1.698071625E-1,-8.544178091E-1,-9.414642853E-1,1.282661010E0
5.614393958E0,5.841737542E-2,-7.722104886E-1,-1.255283180E0,1.474943216E0
5.624454958E0,1.919494718E-2,-6.875982083E-1,-1.430292683E0,1.587103305E0
5.634515958E0,3.938147251E-2,-5.657536362E-1,-1.488381262E0,1.592767045E0
5.644576958E0,1.038037191E-1,-3.912730135E-1,-1.453353517E0,1.508676980E0
5.654637958E0,1.429441036E-1,-1.287749845E-1,-1.332509696E0,1.346327636E0
5.664697958E0,1.933197303E-1,1.249696165E-1,-1.274607058E0,1.295227036E0
5.674758958E0,2.668452877E-1,2.437607726E-1,-1.345699260E0,1.393388754E0
5.684819958E0,3.314462033E-1,2.172885270E-1,-1.447066006E0,1.500356929E0
5.694880958E0,3.429821751E-1,1.091762871E-1,-1.545938330E0,1.587287483E0
5.704941958E0,2.821108329E-1,2.991055459E-2,-1.592268743E0,1.617343783E0
5.715005625E0,2.031488632E-1,-3.623870373E-2,-1.495269867E0,1.509441844E0
5.725066625E0,1.345287909E-1,-8.926432505E-2,-1.367908155E0,1.377402931E0
5.735127625E0,4.393477242E-2,-7.644196585E-2,-1.294068346E0,1.297068434E0
5.745188625E0,-8.536894653E-2,-5.054143175E-2,-1.145446742E0,1.149734984E0
5.755249625E0,-2.378975502E-1,1.832034990E-2,-9.672388119E-1,9.962338073E-1
5.765309625E0,-3.577782619E-1,1.916543336E-1,-7.977251065E-1,8.950430234E-1
5.775370625E0,-3.705354612E-1,3.623474224E-1,-6.623018378E-1,8.409731903E-1
5.785431625E0,-2.987199951E-1,4.144959614E-1,-5.406066620E-1,7.438387597E-1
5.795492625E0,-1.818104364E-1,3.303258768E-1,-5.689498705E-1,6.825497599E-1
5.805553625E0,-1.059360525E-1,2.087590474E-1,-6.739676178E-1,7.134669837E-1
5.815613625E0,-9.397177219E-2,1.478392464E-1,-7.033574778E-1,7.248440372E-1
5.825674625E0,-7.823263910E-2,1.401717925E-1,-6.915776771E-1,7.099634925E-1
5.835735625E0,-5.008783400E-2,1.202152455E-1,-7.072908998E-1,7.191807236E-1
5.845796625E0,-8.449544560E-2,1.208739343E-1,-6.196715426E-1,6.369794417E-1
5.855856625E0,-1.381077802E-1,1.657111149E-1,-4.661979192E-1,5.136870959E-1
5.865917625E0,-1.509960668E-1,1.630857150E-1,-5.338203835E-1,5.782395390E-1
5.875978625E0,-1.948495081E-1,1.709106052E-1,-7.062384009E-1,7.522961150E-1
5.886039625E0,-3.080041310E-1,1.800359161E-1,-7.185742718E-1,8.022645822E-1
5.896100625E0,-4.145168286E-1,1.526225612E-1,-5.995033264E-1,7.446623972E-1
5.906160625E0,-3.944942812E-1,1.186360587E-1,-4.543508756E-1,6.132984351E-1
5.916221625E0,-2.975215717E-1,8.022876889E-2,-3.154947066E-1,4.410132094E-1
5.926282625E0,-2.891668507E-1,6.107519075E-2,-1.754141307E-1,3.436826497E-1
5.936343625E0,-3.584507648E-1,5.682660386E-2,7.566472471E-2,3.707308515E-1
5.946404625E0,-5.061917049E-1,1.274700321E-1,3.349226654E-1,6.202030659E-1
5.956464625E0,-6.466049143E-1,3.134987596E-1,5.193187040E-1,8.866066229E-1
5.966525625E0,-7.327128392E-1,5.392205796E-1,6.427089876E-1,1.113867937E0
5.976586625E0,-8.045895915E-1,6.905855508E-1,8.181985474E-1,1.339298950E0
5.986647625E0,-9.007524616E-1,6.731118777E-1,9.678305501E-1,1.483620764E0
5.996708625E0,-8.561814755E-1,4.874657044E-1,1.091772226E0,1.470590400E0
6.006768625E0,-6.781108086E-1,1.729739414E-1,1.226092125E0,1.411756407E0
6.016829625E0,-6.143738191E-1,-1.351230142E-1,1.335807526E0,1.476514532E0
6.026890625E0,-5.864190850E-1,-3.171560468E-1,1.594991207E0,1.728719830E0
6.036951625E0,-5.760068750E-1,-3.822029588E-1,2.016029325E0,2.131252510E0
6.047012625E0,-5.245254303E-1,-3.937474090E-1,2.388644897E0,2.477052360E0
6.057072625E0,-4.835304552E-1,-4.642562051E-1,2.617514273E0,2.701983807E0
6.067133625E0,-4.233102735E-1,-6.173684706E-1,2.825772214E0,2.923238619E0
6.077194625E0,-2.708653946E-1,-7.269892922E-1,3.007685525E0,3.106131631E0
6.087255625E0,-1.049082582E-1,-7.322221848E-1,3.044939305E0,3.133498116E0
6.097316625E0,-3.622287970E-2,-7.209333310E-1,2.956807732E0,3.043644021E0
6.107376625E0,-3.921522886E-2,-7.152121959E-1,2.850289589E0,2.938914266E0
6.117437625E0,-9.400491860E-2,-6.883429974E-1,2.885015618E0,2.967485151E0
6.127498625E0,-2.753243351E-1,-6.022305409E-1,2.958469511E0,3.031670655E0
6.137559625E0,-4.126622014E-1,-5.234571440E-1,3.083643780E0,3.154862348E0
6.147619625E0,-4.758156023E-1,-4.820266244E-1,3.123514774E0,3.196106177E0
6.157680625E0,-4.638134247E-1,-4.889511895E-1,2.992934169E0,3.067874036E0
6.167741625E0,-3.571486264E-1,-5.679257306E-1,2.698605798E0,2.780749545E0
6.177802625E0,-2.724769238E-1,-7.662096374E-1,2.276714571E0,2.417591802E0
6.187863625E0,-1.749181041E-1,-1.008374997E0,1.807462066E0,2.077097879E0
6.197923625E0,-5.687436830E-2,-1.092648431E0,1.314435952E0,1.710221378E0
6.207984625E0,8.711437695E-3,-1.060850249E0,8.953472954E-1,1.388209610E0
6.218045625E0,5.482426140E-2,-1.022976957E0,4.060581368E-1,1.101984920E0
6.228106625E0,9.803916849E-2,-1.010166730E0,-1.293304700E-1,1.023120165E0
6.238167625E0,1.266038768E-1,-1.015244745E0,-6.181413263E-1,1.195344776E0
6.248227625E0,1.082096692E-1,-9.754265217E-1,-1.124997275E0,1.492911618E0
6.258288625E0,7.334052958E-2,-9.124425074E-1,-1.643729503E0,1.881429468E0
6.268349625E0,4.398991898E-2,-8.349128133E-1,-2.120076435E0,2.278977536E0
6.278410625E0,2.982312958E-2,-7.718327585E-1,-2.563933312E0,2.677754518E0
6.288471625E0,2.120565847E-2,-7.265294087E-1,-2.933907697E0,3.022599714E0
6.298531625E0,2.427288853E-3,-6.485010932E-1,-3.196236010E0,3.261362322E0
6.308592625E0,-7.765065841E-3,-5.505726564E-1,-3.341934591E0,3.386992376E0
6.318653625E0,-1.387931652E-2,-3.946743388E-1,-3.329677657E0,3.353015624E0
6.328714625E0,-3.595772674E-3,-1.647113872E-1,-3.296957223E0,3.301070993E0
6.338774625E0,1.868070284E-2,6.015717790E-2,-3.208699935E0,3.209318172E0
6.348835625E0,8.942592748E-2,2.310921952E-1,-3.027298256E0,3.037422481E0
6.358896625E0,1.748440272E-1,3.041556399E-1,-2.841794170E0,2.863367805E0
6.368957625E0,2.686216718E-1,2.458561224E-1,-2.728223700E0,2.752418462E0
6.379018625E0,3.612900265E-1,8.020362586E-2,-2.646407704E0,2.672159584E0
6.389078625E0,4.614421960E-1,-6.039442867E-3,-2.535677227E0,2.577328923E0
6.399139625E0,5.332606588E-1,-3.605597824E-2,-2.372099615E0,2.431568125E0
6.409200625E0,5.927567359E-1,1.403434083E-2,-2.108921117E0,2.190686145E0
6.419261625E0,5.721430349E-1,9.454319134E-2,-1.817093600E0,1.907384392E0
6.429322625E0,4.376678923E-1,1.724000372E-1,-1.461754797E0,1.535578732E0
6.439382625E0,2.340851108E-1,2.153454973E-1,-1.062530885E0,1.109117399E0
6.449443625E0,1.149754276E-1,2.097684230E-1,-7.273772550E-1,7.657021688E-1
6.459504625E0,1.015843353E-1,1.482729636E-1,-5.498224586E-1,5.784539609E-1
6.469565625E0,1.478291599E-1,3.592324644E-2,-4.298112810E-1,4.559404319E-1
6.479626625E0,1.959268576E-1,-2.802716643E-2,-3.693306059E-1,4.190202286E-1
6.489686625E0,2.521556202E-1,-3.583436877E-2,-3.490735120E-1,4.321097957E-1
6.499747625E0,3.273087500E-1,1.853859723E-2,-2.865539128E-1,4.354168604E-1
6.509808625E0,4.014777935E-1,1.243059576E-1,-1.357857960E-1,4.416720188E-1
6.519869625E0,4.009360490E-1,2.557573588E-1,9.969502687E-4,4.755654906E-1
6.529930625E0,2.788457842E-1,3.893820240E-1,1.677928698E-1,5.074719491E-1
6.539990625E0,7.334423890E-2,5.258443429E-1,3.614158148E-1,6.422717816E-1
6.550051625E0,-1.249655052E-1,6.874159214E-1,4.892862350E-1,8.529701321E-1
6.560112625E0,-2.018557515E-1,7.453336157E-1,5.408960992E-1,9.427812754E-1
6.570173625E0,-2.624666916E-1,7.109196818E-1,6.311607367E-1,9.862349789E-1
6.580233625E0,-3.400374807E-1,7.167141263E-1,7.740029526E-1,1.108325402E0
6.590294625E0,-3.915799923E-1,7.689288850E-1,9.589854670E-1,1.290054125E0
6.600355625E0,-4.413202094E-1,8.753853397E-1,1.176794835E0,1.531636087E0
6.610416625E0,-4.807973935E-1,9.726107951E-1,1.465490583E0,1.823403559E0
6.620477625E0,-4.116424470E-1,9.163502017E-1,1.828340719E0,2.086139253E0
6.630537625E0,-3.317825644E-1,6.729102950E-1,2.153595014E0,2.280539282E0
6.640598625E0,-2.266694344E-1,3.908331567E-1,2.413099122E0,2.455030949E0
6.650659625E0,-1.026010931E-1,1.283937460E-1,2.540474283E0,2.545785050E0
6.660720625E0,-4.224312725E-2,-6.076777339E-2,2.646111251E0,2.647146002E0
6.670781625E0,-1.202030942E-1,-1.750198822E-1,2.713731376E0,2.722024747E0
6.680841625E0,-3.716321430E-1,-5.597744197E-2,2.831736959E0,2.856567543E0
6.690902625E0,-7.005980305E-1,2.059596929E-1,3.031587773E0,3.118297840E0
6.700963625E0,-1.040141604E0,3.564439273E-1,3.170004816E0,3.355276049E0
6.711024625E0,-1.250619148E0,2.541372415E-1,3.159192145E0,3.407217193E0
6.721085708E0,-1.310991358E0,-3.178297922E-2,3.066162359E0,3.334825349E0
6.731145708E0,-1.309104607E0,-3.672627380E-1,2.964605579E0,3.261521582E0
6.741206708E0,-1.297202307E0,-6.330507030E-1,2.885816102E0,3.226673456E0
6.751267708E0,-1.306341359E0,-7.756987913E-1,2.731043227E0,3.125193349E0
6.761328708E0,-1.245891382E0,-8.621760410E-1,2.452087187E0,2.882416422E0
6.771388708E0,-1.207940175E0,-9.711149311E-1,1.958768127E0,2.497790274E0
6.781449708E0,-1.187722915E0,-1.130810284E0,1.342222506E0,2.119192978E0
6.791510708E0,-1.231913467E0,-1.263953285E0,8.327604532E-1,1.951583631E0
6.801571708E0,-1.280174485E0,-1.308569148E0,5.061232924E-1,1.899305324E0
6.811632708E0,-1.314759450E0,-1.238882471E0,3.240784192E-1,1.835333487E0
6.821692708E0,-1.327222351E0,-1.020837899E0,2.956334692E-1,1.700302424E0
6.831753708E0,-1.311493049E0,-8.137385836E-1,2.741174698E-1,1.567585687E0
6.841814708E0,-1.268224822E0,-7.507175857E-1,1.438339037E-1,1.480763075E0
6.851875708E0,-1.241972140E0,-8.633862685E-1,-2.905364513E-2,1.512869710E0
6.861936708E0,-1.219256730E0,-1.056378591E0,-1.895614690E-1,1.624332556E0
6.871996708E0,-1.205742426E0,-1.159979412E0,-3.414306164E-1,1.707612924E0
6.882057708E0,-1.208047983E0,-1.159274676E0,-4.595999211E-1,1.736240131E0
6.892118708E0,-1.175827851E0,-1.136811866E0,-5.108636302E-1,1.713445069E0
6.902179708E0,-1.138578383E0,-1.137700936E0,-4.865082228E-1,1.681491720E0
6.912240708E0,-1.129384514E0,-1.131459033E0,-4.014400059E-1,1.648290934E0
6.922300708E0,-1.076724124E0,-1.099772679E0,-1.675595659E-1,1.548196045E0
6.932361708E0,-1.001782919E0,-1.020447890E0,-5.720214128E-2,1.431137659E0
6.942422708E0,-8.971419521E-1,-1.001923618E0,-1.209139878E-1,1.350309154E0
6.952483708E0,-8.039107297E-1,-1.105839750E0,-3.020396787E-1,1.400136415E0
6.962543708E0,-7.045801306E-1,-1.247967728E0,-6.192066890E-1,1.561176971E0
6.972604708E0,-5.827354854E-1,-1.362979244E0,-9.110049695E-1,1.739891698E0
6.982665708E0,-5.183677275E-1,-1.350019768E0,-1.298159643E0,1.943315963E0
6.992726708E0,-4.916822047E-1,-1.234172685E0,-1.627397060E0,2.100798610E0
7.002787708E0,-5.555139922E-1,-1.070561744E0,-1.792693169E0,2.160658937E0
7.012847708E0,-6.611628002E-1,-8.808394763E-1,-1.858984222E0,2.160749123E0
7.022908708E0,-7.318392652E-1,-6.526524702E-1,-1.979428094E0,2.208999669E0
7.032969708E0,-7.349306881E-1,-4.360768649E-1,-2.073664160E0,2.242848456E0
7.043030708E0,-7.190318164E-1,-2.888901678E-1,-2.036631405E0,2.179066718E0
7.053091708E0,-6.879219248E-1,-1.611016086E-1,-1.959692572E0,2.083167127E0
7.063151708E0,-6.056722851E-1,-6.056926042E-2,-1.862963837E0,1.959883112E0
7.073212708E0,-4.467680602E-1,5.593446493E-3,-1.705921074E0,1.763462417E0
7.083273708E0,-3.550461504E-1,1.724782437E-2,-1.541912522E0,1.582355675E0
7.093334708E0,-3.497651645E-1,6.882757545E-2,-1.339785971E0,1.386397978E0
7.103395708E0,-2.677444615E-1,1.319497302E-1,-1.116914084E0,1.156111975E0
7.113455708E0,-1.969508329E-1,1.205266097E-1,-9.332202959E-1,9.613617503E-1
7.123516708E0,-2.290863079E-1,8.651130974E-2,-7.489727765E-1,7.879879207E-1
7.133577708E0,-2.829725480E-1,2.798404321E-2,-4.871069777E-1,5.640299436E-1
7.143638708E0,-3.419783909E-1,-2.677586228E-3,-2.920555580E-1,4.497252919E-1
7.153699708E0,-4.057886898E-1,3.399863541E-3,-1.800158894E-1,4.439388925E-1
7.163759708E0,-4.501122290E-1,1.183622628E-2,-9.246552944E-2,4.596639958E-1
7.173820708E0,-5.004312473E-1,1.862674400E-2,-2.018283427E-2,5.011843330E-1
7.183881708E0,-5.520673143E-1,7.748320878E-2,6.875156164E-3,5.575206140E-1
7.193942708E0,-6.034772038E-1,1.553071640E-1,-4.527265191E-2,6.247836936E-1
7.204002708E0,-6.287680560E-1,2.259175555E-1,-1.051054555E-1,6.763395353E-1
7.214063708E0,-6.901820929E-1,2.698887634E-1,-2.139367568E-1,7.713366334E-1
7.224124708E0,-8.054883816E-1,3.735156043E-1,-3.493939394E-1,9.541496552E-1
7.234185708E0,-8.923292550E-1,4.640305026E-1,-3.784955317E-1,1.074632344E0
7.244246708E0,-8.846286182E-1,5.196227592E-1,-3.545950377E-1,1.085501379E0
7.254306708E0,-8.350912996E-1,6.223279327E-1,-3.248403114E-1,1.090958644E0
7.264367708E0,-7.522097951E-1,7.328454249E-1,-2.342850673E-1,1.075997902E0
7.274428708E0,-6.683097788E-1,8.089589234E-1,-1.088201916E-1,1.054938071E0
7.284489708E0,-6.405899566E-1,8.515555970E-1,9.691759944E-3,1.065643635E0
7.294550708E0,-6.504122557E-1,9.006831720E-1,1.009170949E-1,1.115549434E0
7.304610708E0,-6.231563370E-1,8.699067910E-1,1.268682075E-1,1.077570038E0
7.314671708E0,-6.093835129E-1,7.431068498E-1,1.373201054E-1,9.707795153E-1
7.324732708E0,-5.537481330E-1,5.657105130E-1,1.663544548E-1,8.089123463E-1
7.334793708E0,-4.844017634E-1,4.519788064E-1,1.279639757E-1,6.747626908E-1
7.344853708E0,-5.006346573E-1,4.176614977E-1,9.349288523E-2,6.586479381E-1
7.354914708E0,-6.263828306E-1,4.651617926E-1,8.782634854E-2,7.851397400E-1
7.364975708E0,-7.926454841E-1,5.257282756E-1,7.268615305E-2,9.539184242E-1
7.375036708E0,-9.913165496E-1,6.131767479E-1,2.108336395E-1,1.184544237E0
7.385097708E0,-1.123054976E0,7.174866897E-1,4.233044994E-1,1.398294078E0
7.395157708E0,-1.122475078E0,7.240763555E-1,6.370728564E-1,1.479898204E0
7.405218708E0,-1.154662612E0,7.218501744E-1,8.690126055E-1,1.615393553E0
7.415279708E0,-1.165781677E0,6.961618942E-1,1.185486721E0,1.802516870E0
7.425340708E0,-1.076794072E0,5.492035308E-1,1.528648113E0,1.948813753E0
7.435401708E0,-8.890396115E-1,2.609464704E-1,1.737534630E0,1.969139680E0
7.445461708E0,-6.319172202E-1,-1.297579014E-1,1.914021140E0,2.019810241E0
7.455522708E0,-4.177090064E-1,-5.581380764E-1,2.154639911E0,2.264613007E0
7.465583708E0,-3.289961468E-1,-8.773906423E-1,2.418144100E0,2.593351826E0
7.475644708E0,-3.598066610E-1,-9.390976247E-1,2.513851326E0,2.707547538E0
7.485705708E0,-4.793238951E-1,-8.424675621E-1,2.510134835E0,2.690776817E0
7.495765708E0,-7.308372717E-1,-6.642322960E-1,2.507429329E0,2.694908069E0
7.505826708E0,-8.919940634E-1,-5.129996181E-1,2.440982739E0,2.649003351E0
7.515887708E0,-9.099743246E-1,-5.071395385E-1,2.172044148E0,2.408945737E0
7.525948708E0,-9.201658022E-1,-6.169131187E-1,1.783093795E0,2.099216612E0
7.536008708E0,-9.953755405E-1,-7.009197736E-1,1.344866617E0,1.814036166E0
7.546069708E0,-1.102553761E0,-6.844671705E-1,9.561179924E-1,1.611918645E0
7.556130708E0,-1.230523438E0,-6.663267687E-1,6.135898536E-1,1.527963285E0
7.566191708E0,-1.296413664E0,-6.859500244E-1,3.776067549E-1,1.514530517E0
7.576252708E0,-1.257822626E0,-7.332550223E-1,2.324355930E-1,1.474383597E0
7.586312708E0,-1.179284579E0,-7.859510069E-1,7.873451293E-2,1.419376704E0
7.596373708E0,-1.038490424E0,-8.616544694E-1,1.304572284E-2,1.349474333E0
7.606434708E0,-9.044983341E-1,-9.117835262E-1,-4.868040919E-2,1.285237806E0
7.616495708E0,-8.439455920E-1,-9.502658066E-1,-1.354782325E-1,1.278125040E0
7.626556708E0,-7.969951547E-1,-9.990495653E-1,-2.397311640E-1,1.300297021E0
7.636616708E0,-7.529491755E-1,-1.026754696E0,-4.604436743E-1,1.353944624E0
7.646677708E0,-7.408115253E-1,-9.833353195E-1,-7.314995420E-1,1.432075992E0
7.656738708E0,-7.571222603E-1,-8.801677774E-1,-9.495088845E-1,1.499832176E0
7.666799708E0,-8.261907410E-1,-7.864703858E-1,-1.179342467E0,1.640724066E0
7.676860708E0,-8.972624778E-1,-7.005426282E-1,-1.477206649E0,1.864934157E0
7.686920708E0,-9.437459419E-1,-5.901796487E-1,-1.729126918E0,2.056416378E0
7.696981708E0,-9.702673772E-1,-5.164167309E-1,-1.955717050E0,2.243420202E0
7.707042708E0,-9.828035152E-1,-4.990428990E-1,-2.125732446E0,2.394511432E0
7.717100250E0,-1.005524480E0,-4.319640796E-1,-2.230041511E0,2.484100961E0
7.727160250E0,-1.028315464E0,-2.792902091E-1,-2.288946946E0,2.524819565E0
7.737221250E0,-1.023933196E0,-1.204343699E-1,-2.303933360E0,2.524094403E0
7.747282250E0,-1.010399888E0,1.220606267E-2,-2.240269461E0,2.457613513E0
7.757343250E0,-1.010607830E0,2.152038485E-2,-2.172883224E0,2.396500118E0
7.767404250E0,-1.001114583E0,-5.813871905E-2,-2.107803714E0,2.334190869E0
7.777464250E0,-9.926888180E-1,-8.064231321E-2,-2.015439926E0,2.248095275E0
7.787525250E0,-9.758061522E-1,4.693413824E-3,-1.960357985E0,2.189799786E0
7.797586250E0,-9.434622788E-1,1.142404144E-1,-1.866516021E0,2.094529541E0
7.807647250E0,-9.098928291E-1,1.966852780E-1,-1.720850185E0,1.956505920E0
7.817708250E0,-9.100431025E-1,2.010706897E-1,-1.543391867E0,1.802960434E0
7.827768250E0,-8.636274661E-1,1.826775420E-1,-1.285768808E0,1.559623324E0
7.837829250E0,-7.909766887E-1,1.825524116E-1,-1.014091381E0,1.298980691E0
7.847890250E0,-7.269675113E-1,2.034069447E-1,-7.715056068E-1,1.079387349E0
7.857951250E0,-6.927647350E-1,2.410845020E-1,-5.147760022E-1,8.961244599E-1
7.868011250E0,-6.855453971E-1,2.188246637E-1,-2.357983267E-1,7.572698170E-1
7.878072250E0,-6.528566842E-1,2.109241252E-1,-2.937056422E-2,6.867120697E-1
7.888133250E0,-5.867706123E-1,1.936483803E-1,1.182464880E-1,6.291118173E-1
7.898194250E0,-5.184936984E-1,1.656755930E-1,2.136578447E-1,5.847510513E-1
7.908255250E0,-4.471322321E-1,1.402138194E-1,2.743174446E-1,5.429891422E-1
7.918315250E0,-3.467358317E-1,1.677363711E-1,3.551423371E-1,5.239153622E-1
7.928376250E0,-2.265189782E-1,1.945441007E-1,4.475400388E-1,5.380058930E-1
7.938437250E0,-8.787056811E-2,2.764307745E-1,5.026319200E-1,5.803223732E-1
7.948498250E0,-1.068140119E-3,3.545153694E-1,5.089738101E-1,6.202714143E-1
7.958559250E0,2.285746034E-2,4.595792366E-1,4.877145034E-1,6.705229116E-1
7.968619250E0,3.828537539E-2,5.738998309E-1,4.318449426E-1,7.192474124E-1
7.978680250E0,6.380748499E-2,6.599238483E-1,3.349595028E-1,7.428113820E-1
7.988741250E0,7.566837922E-2,7.131527334E-1,2.472424972E-1,7.585785241E-1
7.998802250E0,6.063014455E-2,7.896305135E-1,2.366455883E-1,8.265551988E-1
8.008863250E0,5.843122602E-3,9.705421963E-1,3.660836470E-1,1.037305902E0
8.018923250E0,2.219127975E-3,1.159985332E0,5.300360656E-1,1.275346669E0
8.028984250E0,2.670825385E-2,1.255583142E0,7.277421212E-1,1.451485774E0
8.039045250E0,8.393615942E-2,1.216672407E0,9.519547749E-1,1.547111799E0
8.049106250E0,1.845408303E-1,1.092514311E0,1.234806231E0,1.659032629E0
8.059166250E0,3.081549892E-1,9.321066206E-1,1.508817866E0,1.800087110E0
8.069227250E0,4.875365288E-1,7.740481223E-1,1.823146053E0,2.039780354E0
8.079288250E0,6.285855498E-1,6.062060628E-1,2.089803060E0,2.264924373E0
8.089349250E0,6.873046781E-1,4.237818515E-1,2.317030538E0,2.453692991E0
8.099410250E0,6.498903186E-1,2.563914894E-1,2.470062112E0,2.566963354E0
8.109470250E0,5.416542273E-1,1.132024605E-1,2.590284959E0,2.648731823E0
8.119531250E0,3.302659794E-1,4.292236358E-2,2.640481551E0,2.661402031E0
8.129592250E0,1.176410453E-1,-2.733814515E-2,2.507149832E0,2.510057184E0
8.139653250E0,-5.548532568E-2,-1.203284622E-1,2.320259371E0,2.324039825E0
8.149714250E0,-2.379273345E-1,-2.537499366E-1,2.193763046E0,2.221169681E0
8.159774250E0,-3.996714790E-1,-3.637799902E-1,2.098693167E0,2.167160857E0
8.169835250E0,-4.912234906E-1,-4.250602721E-1,2.031243196E0,2.132586615E0
8.179896250E0,-5.816155608E-1,-4.481214713E-1,2.053893555E0,2.181185056E0
8.189957250E0,-6.654493209E-1,-4.869958075E-1,2.195324253E0,2.345087694E0
8.200017250E0,-6.618241203E-1,-5.380681664E-1,2.231952381E0,2.389380662E0
8.210078250E0,-6.251339384E-1,-6.400270890E-1,2.073267719E0,2.258066906E0
8.220139250E0,-6.143799587E-1,-7.773533341E-1,1.755976748E0,2.016232943E0
8.230200250E0,-6.451802402E-1,-9.358599483E-1,1.299281139E0,1.726332199E0
8.240261250E0,-7.298947737E-1,-1.049247766E0,8.196088958E-1,1.518362933E0
8.250321250E0,-8.615389869E-1,-1.015984417E0,4.682409364E-1,1.411992683E0
8.260382250E0,-9.676992801E-1,-8.841025881E-1,3.286608821E-1,1.351331661E0
8.270443250E0,-1.113850070E0,-7.270888411E-1,2.071656811E-1,1.346193812E0
8.280504250E0,-1.227908855E0,-5.994714591E-1,3.069729745E-2,1.366773028E0
8.290565250E0,-1.198545308E0,-5.613306561E-1,5.630167007E-2,1.324678390E0
8.300625250E0,-1.164323966E0,-5.568730313E-1,9.193401754E-2,1.293912569E0
8.310686250E0,-1.078169044E0,-6.094588689E-1,2.178695941E-1,1.257519686E0
8.320747250E0,-8.929417509E-1,-7.640602740E-1,4.445018256E-1,1.256469238E0
8.330808250E0,-7.524969665E-1,-9.530499583E-1,6.758457434E-1,1.389720611E0
8.340869250E0,-6.993282346E-1,-1.119875991E0,8.892100579E-1,1.591815549E0
8.350929250E0,-6.846680224E-1,-1.262415906E0,1.089088939E0,1.802381463E0
8.360990250E0,-6.479247040E-1,-1.397769447E0,1.219200597E0,1.964692328E0
8.371051250E0,-6.275817291E-1,-1.514156081E0,1.283845659E0,2.082015164E0
8.381112250E0,-6.665628500E-1,-1.524354210E0,1.204649801E0,2.054055241E0
8.391172250E0,-6.656010561E-1,-1.468262601E0,9.998902488E-1,1.896997718E0
8.401233250E0,-6.064765331E-1,-1.419028022E0,6.822700793E-1,1.687289772E0
8.411294250E0,-5.390789673E-1,-1.420984354E0,1.881271470E-1,1.531402786E0
8.421355250E0,-5.296698472E-1,-1.419194668E0,-3.561796331E-1,1.556125825E0
8.431416250E0,-5.729225419E-1,-1.315657728E0,-8.018462241E-1,1.643822637E0
8.441476250E0,-6.057845517E-1,-1.139809295E0,-1.175303795E0,1.745703057E0
8.451537250E0,-5.750231906E-1,-9.867981867E-1,-1.581613362E0,1.950877535E0
8.461598250E0,-5.259084430E-1,-8.948751327E-1,-1.937501219E0,2.198020056E0
8.471659250E0,-5.018905296E-1,-7.900908355E-1,-2.236502684E0,2.424475591E0
8.481719250E0,-5.246279758E-1,-6.895981023E-1,-2.533749985E0,2.677810494E0
8.491780250E0,-5.543059209E-1,-5.847512399E-1,-2.755085224E0,2.870484917E0
8.501841250E0,-5.812815752E-1,-4.799035004E-1,-2.931837198E0,3.027187637E0
8.511902250E0,-6.222277991E-1,-3.857491489E-1,-3.077670264E0,3.163546127E0
8.521963250E0,-6.445284949E-1,-3.109245229E-1,-3.077738677E0,3.159836452E0
8.532023250E0,-7.000560667E-1,-2.395899537E-1,-3.011058784E0,3.100638134E0
8.542084250E0,-7.529490294E-1,-1.505582017E-1,-2.834629576E0,2.936788186E0
8.552145250E0,-7.529901060E-1,-8.109722659E-2,-2.546969955E0,2.657184000E0
8.562206250E0,-7.404082867E-1,3.692925990E-2,-2.155784796E0,2.279687761E0
8.572267250E0,-6.889454799E-1,8.306247577E-2,-1.733495958E0,1.867231503E0
8.582327250E0,-6.442311640E-1,1.839811787E-2,-1.459501280E0,1.595467414E0
8.592388250E0,-6.992491510E-1,-3.158680514E-2,-1.201440264E0,1.390469636E0
8.602449250E0,-7.899551070E-1,3.457582869E-2,-9.248926914E-1,1.216820056E0
8.612510250E0,-8.975250909E-1,1.422117399E-1,-6.904082340E-1,1.141244495E0
8.622571250E0,-1.009869399E0,2.387559215E-1,-5.056701332E-1,1.154358210E0
8.632631250E0,-1.042929849E0,2.946202929E-1,-3.312944680E-1,1.133251875E0
8.642692250E0,-9.822285877E-1,3.127282427E-1,-1.835136938E-1,1.047019211E0
8.652753250E0,-9.050226101E-1,3.446557213E-1,-3.181996286E-2,9.689509796E-1
8.662814250E0,-8.640069504E-1,4.716009658E-1,1.641956627E-1,9.979357178E-1
8.672874250E0,-8.136491943E-1,6.949168758E-1,3.605703074E-1,1.129134811E0
8.682935250E0,-6.988559257E-1,8.849650524E-1,4.470979893E-1,1.213037246E0
8.692996250E0,-5.895257107E-1,1.017278772E0,3.683178681E-1,1.232093631E0
8.703057250E0,-5.506972752E-1,1.140189364E0,2.937986130E-1,1.299852646E0
8.713118250E0,-5.245041245E-1,1.280852031E0,2.928162807E-1,1.414718302E0
8.723178083E0,-5.005918995E-1,1.459248972E0,3.794784486E-1,1.588711335E0
8.733239083E0,-4.996371588E-1,1.659070551E0,4.809498596E-1,1.798183848E0
8.743300083E0,-5.322514660E-1,1.790641381E0,6.203258461E-1,1.968373017E0
8.753361083E0,-5.690921040E-1,1.770711147E0,7.350429547E-1,1.999892980E0
8.763422083E0,-6.402734030E-1,1.627236993E0,7.145490485E-1,1.889029011E0
8.773482083E0,-7.241362164E-1,1.459788086E0,7.115716463E-1,1.778113810E0
8.783543083E0,-7.626282909E-1,1.307589155E0,7.785672891E-1,1.702221587E0
8.793604083E0,-7.883455148E-1,1.189229962E0,7.941273147E-1,1.632909901E0
8.803665083E0,-8.175774269E-1,1.060735790E0,7.900675929E-1,1.554927672E0
8.813725083E0,-8.300329464E-1,9.532898404E-1,8.099551427E-1,1.501247330E0
8.823786083E0,-8.589925244E-1,9.170491632E-1,9.046244878E-1,1.548287050E0
8.833847083E0,-8.637236528E-1,9.166120838E-1,9.524827784E-1,1.579056587E0
8.843908083E0,-8.199322468E-1,9.106822032E-1,9.204979241E-1,1.532627611E0
8.853969083E0,-7.546051070E-1,8.461464109E-1,9.089490885E-1,1.453128027E0
8.864029083E0,-7.319429071E-1,7.601720949E-1,1.085004659E0,1.513551169E0
8.874090083E0,-6.708365069E-1,5.796500558E-1,1.427918714E0,1.680764011E0
8.884151083E0,-5.472961691E-1,3.110658062E-1,1.832136732E0,1.937271286E0
8.894212083E0,-4.591476390E-1,1.115156849E-1,2.203522049E0,2.253610819E0
8.904273083E0,-3.642476944E-1,1.062702940E-1,2.649555845E0,2.676586620E0
8.914333083E0,-2.074559954E-1,1.071981740E-1,2.950136059E0,2.959363480E0
8.924394083E0,-5.475932077E-2,2.018740240E-2,3.077182606E0,3.077736004E0
8.934455083E0,4.127637237E-2,-1.706020549E-1,3.163108025E0,3.167974302E0
8.944516083E0,1.315277074E-1,-3.800569210E-1,3.159147706E0,3.184643941E0
8.954576083E0,1.874761326E-1,-5.178573021E-1,3.021868531E0,3.071646611E0
8.964637083E0,2.496139817E-1,-6.426380170E-1,2.854563319E0,2.936634554E0
8.974698083E0,3.170101587E-1,-7.185812885E-1,2.626330705E0,2.741252903E0
8.984759083E0,3.117595053E-1,-7.622088262E-1,2.239022834E0,2.385661237E0
8.994820083E0,2.670721596E-1,-8.562561737E-1,1.774390799E0,1.988206449E0
9.004880083E0,1.440629683E-1,-9.773388536E-1,1.348567904E0,1.671699963E0
9.014941083E0,2.155641831E-2,-1.050077851E0,9.500088215E-1,1.416207941E0
9.025002083E0,-8.748984128E-2,-1.098111339E0,5.599580222E-1,1.235741062E0
9.035063083E0,-2.153587997E-1,-1.122006643E0,3.238521320E-1,1.187500957E0
9.045124083E0,-3.243406668E-1,-1.116267382E0,1.656504500E-1,1.174176225E0
9.055184083E0,-4.178915126E-1,-1.118065035E0,6.897609472E-2,1.195600452E0
9.065245083E0,-4.702709435E-1,-1.106461090E0,3.077448070E-2,1.202646237E0
9.075306083E0,-4.777648082E-1,-1.052825896E0,-3.827119589E-2,1.156791366E0
9.085367083E0,-4.480697966E-1,-1.011605876E0,-1.986708462E-1,1.124092121E0
9.095427083E0,-3.689502445E-1,-1.054861312E0,-4.228004694E-1,1.194829238E0
9.105488083E0,-3.263330325E-1,-1.077284214E0,-7.444487858E-1,1.349532705E0
9.115549083E0,-3.163242804E-1,-1.025696204E0,-1.111111307E0,1.544889022E0
9.125610083E0,-3.515548510E-1,-9.600585041E-1,-1.537418352E0,1.846336463E0
9.135671083E0,-3.703755033E-1,-9.192741019E-1,-1.905748499E0,2.148050332E0
9.145731083E0,-3.729967370E-1,-8.812733397E-1,-2.213007987E0,2.411052388E0
9.155792083E0,-3.858967911E-1,-6.996946357E-1,-2.452921584E0,2.579789374E0
9.165853083E0,-3.438051707E-1,-4.432936446E-1,-2.713065963E0,2.770458115E0
9.175914083E0,-3.029831269E-1,-2.040650488E-1,-2.972896931E0,2.995255829E0
9.185975083E0,-2.762480490E-1,-2.102761075E-2,-3.184048074E0,3.196078422E0
9.196035083E0,-2.722292577E-1,6.515537784E-2,-3.289336547E0,3.301225365E0
9.206096083E0,-2.431133397E-1,8.798086122E-2,-3.305894693E0,3.315989211E0
9.216157083E0,-1.380390571E-1,6.035042837E-2,-3.184172035E0,3.187734070E0
9.226218083E0,-2.880426139E-2,9.428986073E-2,-3.036384244E0,3.037984454E0
9.236278083E0,2.858020339E-2,2.430140832E-1,-2.856208141E0,2.866670127E0
9.246339083E0,3.724376701E-2,4.376610218E-1,-2.596833256E0,2.633719276E0
9.256400083E0,2.653451845E-2,5.397991616E-1,-2.365346081E0,2.426303629E0
9.266461083E0,3.726788677E-2,4.992833658E-1,-2.224284927E0,2.279937765E0
9.276522083E0,6.538674485E-2,3.713163203E-1,-2.129719078E0,2.162834850E0
9.286582083E0,8.576732464E-2,2.484822531E-1,-1.958887410E0,1.976446141E0
9.296643083E0,1.130200639E-1,1.818038949E-1,-1.761973068E0,1.774929655E0
9.306704083E0,1.383738468E-1,1.880250400E-1,-1.486097925E0,1.504323030E0
9.316765083E0,1.171512862E-1,2.750729779E-1,-1.240976213E0,1.276484049E0
9.326825083E0,5.794265460E-2,3.561008419E-1,-9.834092867E-1,1.047501306E0
9.336886083E0,-3.852882056E-2,4.454519250E-1,-7.384279078E-1,8.632425282E-1
9.346947083E0,-1.793273067E-1,5.547882065E-1,-4.777537715E-1,7.537883677E-1
9.357008083E0,-3.135695109E-1,6.404596368E-1,-3.000071865E-1,7.736399011E-1
9.367069083E0,-3.556394235E-1,6.419712152E-1,-1.341497451E-1,7.460580371E-1
9.377129083E0,-3.385139887E-1,5.964461828E-1,-4.858042181E-2,6.875316915E-1
9.387190083E0,-3.370297095E-1,5.590713651E-1,-7.447189271E-2,6.570356757E-1
9.397251083E0,-3.342730762E-1,5.627765995E-1,-9.215913534E-2,6.610214041E-1
9.407312083E0,-2.971144410E-1,6.370406967E-1,-9.027633190E-2,7.086943322E-1
9.417373083E0,-2.452814873E-1,7.810133256E-1,-6.678514302E-2,8.213434593E-1
9.427433083E0,-1.433657884E-1,9.250971247E-1,-3.905940056E-4,9.361402629E-1
9.437494083E0,-8.267457697E-2,9.897282265E-1,7.972795486E-2,9.963702097E-1
9.447555083E0,-1.034990335E-1,9.764748544E-1,2.081591231E-1,1.003765616E0
9.457616083E0,-1.885228207E-1,9.838560140E-1,4.181612885E-1,1.085528615E0
9.467676083E0,-2.707697196E-1,1.041033012E0,6.328429806E-1,1.248020918E0
9.477737083E0,-3.164137793E-1,1.090144654E0,8.988053387E-1,1.447889527E0
9.487798083E0,-3.065175495E-1,1.033721361E0,1.187547280E0,1.603995450E0
9.497859083E0,-1.605239950E-1,8.716040184E-1,1.421472743E0,1.675125750E0
9.507920083E0,4.685506378E-2,6.530703999E-1,1.556882563E0,1.688958158E0
9.517980083E0,1.922083573E-1,5.092587157E-1,1.633066521E0,1.721393259E0
9.528041083E0,2.957241742E-1,4.809894745E-1,1.742671409E0,1.831858974E0
9.538102083E0,3.390708994E-1,5.177616636E-1,1.840268455E0,1.941554583E0
9.548163083E0,2.808887282E-1,6.070270484E-1,1.909017093E0,2.022801665E0
9.558224083E0,1.990161609E-1,6.840880517E-1,1.879814928E0,2.010295515E0
9.568284083E0,8.328560187E-2,6.782361583E-1,1.820311323E0,1.944344128E0
9.578345083E0,-2.115375346E-1,6.747422276E-1,1.897140228E0,2.024639782E0
9.588406083E0,-6.081540627E-1,7.631346598E-1,2.036081182E0,2.257842433E0
9.598467083E0,-8.259014500E-1,8.250979695E-1,1.896712212E0,2.227199380E0
9.608527083E0,-9.583356220E-1,8.513137416E-1,1.700277926E0,2.129339634E0
9.618588083E0,-1.076563545E0,8.073108125E-1,1.713666880E0,2.178851530E0
9.628649083E0,-1.144836074E0,7.186985251E-1,1.818846011E0,2.266137246E0
9.638710083E0,-1.147330788E0,7.064131596E-1,1.947488848E0,2.368142796E0
9.648771083E0,-1.173609125E0,7.574132323E-1,2.373020552E0,2.753590333E0
9.658831083E0,-1.220434067E0,7.126407366E-1,2.734518812E0,3.078134056E0
9.668892083E0,-1.169084404E0,4.731094743E-1,2.787845419E0,3.059848525E0
9.678953083E0,-1.171079620E0,1.601227847E-1,2.797210904E0,3.036684973E0
9.689014083E0,-1.153822952E0,-2.219933429E-1,2.814747289E0,3.050146021E0
9.699075083E0,-9.447851383E-1,-4.853605606E-1,3.039627110E0,3.219864407E0
9.709135083E0,-8.931915732E-1,-5.893565069E-1,3.110414087E0,3.289347667E0
9.719195875E0,-1.094634804E0,-6.361453418E-1,3.163966981E0,3.407872255E0
9.729256875E0,-1.320279513E0,-6.077400067E-1,3.318946263E0,3.623243051E0
9.739317875E0,-1.387415051E0,-5.788509607E-1,3.360739236E0,3.681651419E0
9.749377875E0,-1.338956251E0,-6.655226304E-1,3.324437968E0,3.645217691E0
9.759438875E0,-1.182911461E0,-9.193670726E-1,3.190165431E0,3.524439078E0
9.769499875E0,-1.070803234E0,-1.182273822E0,2.923314296E0,3.330188798E0
9.779560875E0,-9.975537014E-1,-1.371300563E0,2.658716093E0,3.153466329E0
9.789621875E0,-8.970283699E-1,-1.566581194E0,2.357475729E0,2.969263940E0
9.799681875E0,-8.490810554E-1,-1.670150439E0,2.013414450E0,2.750305234E0
9.809742875E0,-7.862145701E-1,-1.629496357E0,1.667350500E0,2.460375869E0
9.819803875E0,-7.649555558E-1,-1.495347197E0,1.156036050E0,2.039029080E0
9.829864875E0,-6.368369213E-1,-1.348200991E0,5.620905018E-1,1.593471967E0
9.839925875E0,-4.135598221E-1,-1.272447097E0,6.069468319E-2,1.339342072E0
9.849985875E0,-2.757902120E-1,-1.204831941E0,-4.521055448E-1,1.316084979E0
9.860046875E0,-2.008296565E-1,-1.102261254E0,-8.145317584E-1,1.385198328E0
9.870107875E0,-2.163601354E-1,-1.076374753E0,-1.002460100E0,1.486714690E0
9.880168875E0,-3.342275776E-1,-1.109240783E0,-1.250207212E0,1.704447494E0
9.890228875E0,-5.646800874E-1,-1.125520308E0,-1.437418685E0,1.910976724E0
9.900289875E0,-6.912264787E-1,-1.139143151E0,-1.677329358E0,2.142165946E0
9.910350875E0,-6.126278770E-1,-1.347585572E0,-2.158316056E0,2.617179395E0
9.920411875E0,-5.947303174E-1,-1.630669747E0,-2.712271911E0,3.220125291E0
9.930472875E0,-6.570337889E-1,-2.070249679E0,-3.605783765E0,4.209430329E0
9.940532875E0,-3.617890498E-1,-1.985935753E0,-2.574505078E0,3.271529998E0
9.950593875E0,-4.520990398E-1,-1.426370371E0,-1.867382578E0,2.392915308E0
9.960654875E0,-5.175343531E-1,-9.057562163E-1,-1.915747823E0,2.181358716E0
9.970715875E0,-4.747643095E-1,-6.740553260E-1,-2.202388274E0,2.351651726E0
9.980775875E0,-4.934985691E-1,-7.854901001E-1,-2.557534119E0,2.720572790E0
9.990836875E0,-4.196945746E-1,-1.119719286E0,-2.577839745E0,2.841684811E0
1.000089787E1,-2.362911739E-1,-1.470782313E0,-2.382619926E0,2.809966520E0
1.001095888E1,-8.749232635E-2,-1.623607480E0,-2.303162697E0,2.819275539E0
1.002101988E1,-2.707589753E-2,-1.523751070E0,-2.426428435E0,2.865328145E0
1.003107988E1,-1.489950947E-2,-1.263798772E0,-2.438076088E0,2.746201803E0
1.004114088E1,-1.264027691E-1,-9.218515545E-1,-2.242328850E0,2.427720458E0
1.005120188E1,-3.544258339E-1,-5.984107742E-1,-1.947811030E0,2.068255529E0
1.006126287E1,-7.739737165E-1,-3.766717851E-1,-1.849416423E0,2.039916188E0
1.007132387E1,-7.671125937E-1,-4.415004498E-1,-1.599634480E0,1.828172544E0
1.008138387E1,-6.575731214E-1,-3.757710215E-1,-1.638745921E0,1.805296226E0
1.009144487E1,-8.206836140E-1,-1.849436304E-1,-1.850869457E0,2.033087181E0
1.010150588E1,-9.051361191E-1,-1.058734873E-1,-1.797593136E0,2.015396157E0
1.011156688E1,-8.651833371E-1,-1.938658968E-1,-1.391076577E0,1.649612147E0
1.012162688E1,-8.334435542E-1,-2.878373766E-1,-9.635316771E-1,1.306090275E0
1.013168788E1,-9.041461855E-1,-2.434014612E-1,-5.342981011E-1,1.078053365E0
1.014174888E1,-1.076576921E0,-1.869647205E-2,-2.365684050E-1,1.102420988E0
1.015180987E1,-1.194894891E0,2.883741510E-1,-2.247552752E-2,1.229405792E0
1.016187087E1,-1.139491061E0,5.612675062E-1,-5.899957538E-2,1.271590359E0
1.017193087E1,-9.454497474E-1,6.803422523E-1,-2.638047355E-1,1.194292152E0
1.018199187E1,-7.391578596E-1,8.666170013E-1,-2.105535579E-1,1.158322999E0
1.019205288E1,-5.366377913E-1,1.021559445E0,-2.811662883E-1,1.187694532E0
1.020211388E1,-5.442265636E-1,1.126467557E0,-3.695124543E-1,1.304473520E0
1.021217488E1,-5.061411995E-1,1.142444489E0,7.225228965E-2,1.251630424E0
1.022223488E1,-5.557844624E-1,9.881528404E-1,5.014589685E-1,1.239678790E0
1.023229588E1,-7.761836717E-1,8.022604993E-1,8.290310991E-1,1.390458760E0
1.024235687E1,-9.488990200E-1,6.199019229E-1,1.334797127E0,1.751105683E0
1.025241787E1,-9.887598545E-1,5.071924558E-1,1.632690545E0,1.974985735E0
1.026247787E1,-9.030030549E-1,3.556384733E-1,1.503456554E0,1.789490109E0
1.027253887E1,-7.892560724E-1,2.391224688E-1,1.175810164E0,1.436187399E0
1.028259988E1,-6.285527323E-1,2.168708897E-1,8.175220245E-1,1.053780708E0
1.029266088E1,-5.366796720E-1,3.267789558E-1,4.594619268E-1,7.784053047E-1
1.030272188E1,-5.595841659E-1,5.148371056E-1,4.081941247E-1,8.630261453E-1
1.031278188E1,-5.862547783E-1,5.628480086E-1,8.028437591E-1,1.142388133E0
1.032284288E1,-6.315345930E-1,5.295358363E-1,1.258638897E0,1.504465359E0
1.033290387E1,-5.745585197E-1,4.169398052E-1,1.498997467E0,1.658598716E0
1.034296487E1,-4.306631472E-1,2.527111056E-1,1.677774332E0,1.750502887E0
1.035302487E1,-3.151764719E-1,9.213633120E-2,1.828628402E0,1.857877053E0
1.036308587E1,-1.693561229E-1,-9.348703802E-2,1.956654359E0,1.966193684E0
1.037314688E1,-3.612512156E-2,-2.506791982E-1,2.016820453E0,2.032660775E0
1.038320788E1,1.473464723E-1,-3.880598223E-1,1.977474539E0,2.020570950E0
1.039326888E1,4.143228107E-1,-5.520210117E-1,1.823974019E0,1.950197890E0
1.040332888E1,5.530258557E-1,-7.590384659E-1,1.585112336E0,1.842432660E0
1.041338988E1,4.900694695E-1,-9.293377447E-1,1.439432466E0,1.782078156E0
1.042345087E1,3.331214306E-1,-1.011479138E0,1.322106330E0,1.697652815E0
1.043351187E1,1.092373905E-1,-1.005770794E0,1.194786133E0,1.565573888E0
1.044357187E1,-1.302249478E-1,-9.984041789E-1,1.044695708E0,1.450916457E0
1.045363287E1,-3.507091974E-1,-9.977077755E-1,9.333641374E-1,1.410526979E0
1.046369388E1,-4.462287276E-1,-1.029021954E0,9.709120327E-1,1.483467706E0
1.047375488E1,-4.678059036E-1,-1.076731726E0,1.127243775E0,1.627535591E0
1.048381588E1,-4.594956945E-1,-1.094639993E0,1.151104508E0,1.653606542E0
1.049387588E1,-3.289113622E-1,-1.092432961E0,1.110143593E0,1.591857800E0
1.050393688E1,-7.957410000E-2,-1.087302322E0,1.099464823E0,1.548347918E0
1.051399787E1,1.161290650E-1,-1.083758617E0,1.056893585E0,1.518236724E0
1.052405887E1,1.715073135E-1,-1.063838907E0,9.122749847E-1,1.411883008E0
1.053411987E1,1.400077050E-1,-1.040501500E0,6.320150149E-1,1.225434008E0
1.054417987E1,8.366905130E-2,-1.020360328E0,2.956416553E-1,1.065617050E0
1.055424088E1,5.256793052E-3,-9.634028922E-1,-9.864720583E-2,9.684544583E-1
1.056430188E1,-2.153090984E-2,-8.520178194E-1,-4.659692931E-1,9.713523186E-1
1.057436288E1,-4.306181967E-2,-7.130392975E-1,-8.004949325E-1,1.072880001E0
1.058442288E1,-9.908428520E-2,-5.366036582E-1,-1.122993434E0,1.248549332E0
1.059448388E1,-1.285253815E-1,-4.258834139E-1,-1.374757583E0,1.444940784E0
1.060454487E1,-1.301398342E-1,-3.897905982E-1,-1.631172023E0,1.682140082E0
1.061460587E1,-1.657192279E-1,-3.258527568E-1,-1.921099779E0,1.955573379E0
1.062466687E1,-2.014413666E-1,-2.780698952E-1,-2.128133313E0,2.155656023E0
1.063472687E1,-2.295228756E-1,-2.274816857E-1,-2.186540565E0,2.210291454E0
1.064478788E1,-1.941397657E-1,-1.706563975E-1,-2.260549359E0,2.275279600E0
1.065484888E1,-1.708007872E-1,-1.407332714E-1,-2.409665637E0,2.419807274E0
1.066490988E1,-1.053235384E-1,-1.167343980E-1,-2.598917204E0,2.603668681E0
1.067496988E1,-2.051824518E-2,-1.136002904E-1,-2.736236140E0,2.738670158E0
1.068503088E1,2.628161724E-2,-1.083208394E-1,-2.863545227E0,2.865713767E0
1.069509187E1,7.627173878E-2,-1.387737232E-1,-2.956276220E0,2.960514248E0
1.070515287E1,8.868402544E-2,-1.740024666E-1,-2.908448920E0,2.914998599E0
1.071521387E1,3.524672359E-2,-1.271219766E-1,-2.768687602E0,2.771828524E0
1.072527333E1,-2.691714562E-2,-2.708985776E-2,-2.579636010E0,2.579918669E0
1.073533433E1,-8.430552073E-2,1.181862617E-1,-2.415451457E0,2.419810148E0
1.074539533E1,-1.372586274E-1,2.197509357E-1,-2.317288401E0,2.331728101E0
1.075545633E1,-1.071467185E-1,2.682132438E-1,-2.239015818E0,2.257567407E0
1.076551733E1,1.728912033E-3,2.398500086E-1,-2.235570638E0,2.248401008E0
1.077557733E1,9.435290102E-2,1.900396250E-1,-2.213452376E0,2.223598198E0
1.078563833E1,1.218057612E-1,1.865761730E-1,-2.062435167E0,2.074436341E0
1.079569933E1,1.203518876E-1,2.301994716E-1,-1.769903646E0,1.788864246E0
1.080576033E1,1.604262917E-1,2.700073157E-1,-1.473001916E0,1.506112609E0
1.081582033E1,1.077367757E-1,3.234296706E-1,-1.276358884E0,1.321100286E0
1.082588133E1,-1.886074226E-2,3.533121586E-1,-1.057160802E0,1.114797816E0
1.083594233E1,-9.746727426E-2,3.338628575E-1,-7.319374985E-1,8.103682983E-1
1.084600333E1,-1.435609483E-1,2.488177371E-1,-4.295545882E-1,5.167563802E-1
1.085606433E1,-1.760787764E-1,2.000360249E-1,-2.643070114E-1,3.753349744E-1
1.086612433E1,-2.101680436E-1,2.276684312E-1,-1.488350272E-1,3.437373801E-1
1.087618533E1,-2.369274972E-1,3.141902659E-1,-3.883369803E-2,3.954215702E-1
1.088624633E1,-2.009839316E-1,4.320033290E-1,9.436178148E-2,4.857216928E-1
1.089630733E1,-1.717184346E-1,5.493720037E-1,3.408575892E-1,6.689399939E-1
1.090636733E1,-1.342633638E-1,6.497289354E-1,7.135450816E-1,9.743310135E-1
1.091642833E1,-9.069506563E-2,7.301399913E-1,1.050251148E0,1.282325027E0
1.092648933E1,-1.108997173E-1,6.693793807E-1,1.330262611E0,1.493307107E0
1.093655033E1,-9.663115896E-2,4.654623395E-1,1.801185080E0,1.862863512E0
1.094661133E1,-2.713034973E-3,2.783779704E-1,2.123735037E0,2.141903864E0
1.095667133E1,8.325448371E-2,1.553973573E-1,2.271541539E0,2.278372360E0
1.096673233E1,5.617898818E-2,1.061584660E-1,2.410608793E0,2.413599066E0
1.097679333E1,-8.769544400E-3,1.678603321E-1,2.547050062E0,2.552590452E0
1.098685433E1,-6.822501987E-2,1.993197410E-1,2.716950268E0,2.725105828E0
1.099691433E1,-1.914901730E-1,1.913674546E-1,2.912778198E0,2.925331916E0
1.100697533E1,-2.473836344E-1,1.771936577E-1,2.915970193E0,2.931804636E0
1.101703633E1,-1.615920072E-1,1.096015989E-1,2.856417471E0,2.863083173E0
1.102709733E1,-1.072337689E-1,-3.678300641E-2,2.954999188E0,2.957173020E0
1.103715833E1,-2.232367533E-1,-1.403370494E-1,3.085185691E0,3.096433413E0
1.104721833E1,-3.944171710E-1,-1.183894524E-1,3.184973103E0,3.211484802E0
1.105727933E1,-4.881644101E-1,-8.974460073E-2,3.339807959E0,3.376488677E0
1.106734033E1,-5.751585537E-1,-8.967713848E-2,3.465887377E0,3.514430915E0
1.107740133E1,-6.366258368E-1,-9.622879744E-2,3.524120382E0,3.582454034E0
1.108746233E1,-6.103189212E-1,-2.012997544E-1,3.432753544E0,3.492392829E0
1.109752233E1,-5.598387390E-1,-3.136182255E-1,3.169977919E0,3.234275160E0
1.110758333E1,-4.827043167E-1,-4.104513692E-1,2.621256491E0,2.696749780E0
1.111764433E1,-3.300053763E-1,-5.385728177E-1,1.954140640E0,2.053686897E0
1.112770533E1,-2.665324616E-1,-5.983886278E-1,1.365492670E0,1.514489595E0
1.113776533E1,-3.697584028E-1,-5.756302778E-1,1.021930159E0,1.229801912E0
1.114782633E1,-4.689983701E-1,-5.414075113E-1,8.671719021E-1,1.124752716E0
1.115788733E1,-5.188413519E-1,-5.051181561E-1,7.530821997E-1,1.044736091E0
1.116794833E1,-5.728620963E-1,-4.878178164E-1,6.432188648E-1,9.898826756E-1
1.117800933E1,-6.361013415E-1,-4.741410328E-1,6.868618977E-1,1.049387394E0
1.118806933E1,-6.435846812E-1,-4.751842857E-1,7.580207580E-1,1.102087482E0
1.119813033E1,-5.631806421E-1,-5.581679703E-1,6.971243459E-1,1.055796511E0
1.120819133E1,-4.500172117E-1,-7.244700924E-1,5.697573709E-1,1.025668498E0
1.121825233E1,-3.160117101E-1,-9.164408335E-1,4.011967617E-1,1.049135856E0
1.122831233E1,-1.990529618E-1,-1.011604926E0,2.055810857E-1,1.051299287E0
1.123837333E1,-1.380720574E-1,-1.016162319E0,-6.072684288E-2,1.027296209E0
1.124843433E1,-9.131596684E-2,-9.704302952E-1,-2.060699129E-1,9.962622008E-1
1.125849533E1,-7.940211877E-2,-9.560495800E-1,-2.377366787E-1,9.883593599E-1
1.126855633E1,-3.387646515E-2,-9.074728127E-1,-3.226072598E-1,9.637063685E-1
1.127861633E1,1.896688750E-2,-8.340388007E-1,-5.274966198E-1,9.870324959E-1
1.128867733E1,1.460395465E-1,-8.038000712E-1,-6.920472085E-1,1.070678029E0
1.129873833E1,3.150460790E-1,-8.462990963E-1,-8.501933420E-1,1.240284206E0
1.130879933E1,4.571254160E-1,-9.041217003E-1,-1.090899822E0,1.488778733E0
1.131885933E1,5.619390589E-1,-9.299547721E-1,-1.330425164E0,1.717737611E0
1.132892033E1,5.776226069E-1,-9.116885090E-1,-1.543732760E0,1.883596201E0
1.133898133E1,4.886689517E-1,-8.205061510E-1,-1.723831680E0,1.970691084E0
1.134904233E1,3.462019078E-1,-6.782202977E-1,-1.865426685E0,2.014858618E0
1.135910333E1,1.932437347E-1,-5.327151867E-1,-1.989725041E0,2.068848556E0
1.136916333E1,6.737932520E-2,-4.165492842E-1,-2.158924166E0,2.199774269E0
1.137922433E1,7.539194296E-3,-3.712126053E-1,-2.357578640E0,2.386636269E0
1.138928533E1,1.111257853E-2,-3.391385809E-1,-2.439875277E0,2.463357431E0
1.139934633E1,6.305803640E-2,-2.890553516E-1,-2.456210643E0,2.473964437E0
1.140940733E1,1.044770260E-1,-2.393415932E-1,-2.351287036E0,2.365745247E0
1.141946733E1,1.063915323E-1,-1.979787552E-1,-2.165067835E0,2.176702432E0
1.142952833E1,8.643330423E-2,-1.375501934E-1,-1.935516674E0,1.942322210E0
1.143958933E1,8.235799592E-2,-3.560311139E-2,-1.658749831E0,1.661174711E0
1.144965033E1,5.348086361E-2,7.176485114E-2,-1.468386708E0,1.471111798E0
1.145971033E1,-1.860105737E-2,2.235598486E-1,-1.319444093E0,1.338378765E0
1.146977133E1,-1.565615197E-1,3.514245677E-1,-1.239936578E0,1.298250150E0
1.147983233E1,-3.253557069E-1,4.590646085E-1,-1.114550639E0,1.248527044E0
1.148989333E1,-4.821574558E-1,5.962705471E-1,-9.004261869E-1,1.182701017E0
1.149995433E1,-5.722572384E-1,7.391770092E-1,-8.090985256E-1,1.236325775E0
1.151001433E1,-6.590393838E-1,8.558603172E-1,-6.203960127E-1,1.245680940E0
1.152007533E1,-7.436265942E-1,9.335698132E-1,-1.970108217E-1,1.209688543E0
1.153013633E1,-7.751221827E-1,9.445875755E-1,1.335773027E-1,1.229187936E0
1.154019733E1,-8.277871040E-1,9.369668262E-1,4.220327300E-1,1.319564302E0
1.155025733E1,-8.269427660E-1,9.735801172E-1,6.973389387E-1,1.455326142E0
1.156031833E1,-7.957943559E-1,9.948208590E-1,7.715143776E-1,1.489359471E0
1.157037933E1,-7.828161684E-1,9.743129926E-1,8.093370920E-1,1.488997478E0
1.158044033E1,-7.999248290E-1,9.178535208E-1,8.711813378E-1,1.497094433E0
1.159050133E1,-8.195821448E-1,8.583885071E-1,7.169037223E-1,1.386541261E0
1.160056133E1,-8.290941028E-1,8.260629062E-1,5.275930989E-1,1.283795714E0
1.161062233E1,-9.021587169E-1,9.219532230E-1,4.584848571E-1,1.368976428E0
1.162068333E1,-9.877954294E-1,1.008849499E0,5.210377854E-1,1.504990862E0
1.163074433E1,-1.014767758E0,1.014406473E0,6.132173860E-1,1.560387663E0
1.164080433E1,-1.012018763E0,9.814776590E-1,7.578546971E-1,1.600569934E0
1.165086533E1,-9.319189981E-1,8.741328661E-1,1.075718111E0,1.670254693E0
1.166092633E1,-8.096617587E-1,7.002187655E-1,1.468315957E0,1.817088394E0
1.167098733E1,-7.286487320E-1,5.639567138E-1,1.655042696E0,1.894239287E0
1.168104833E1,-7.091725338E-1,4.165521348E-1,1.738698226E0,1.923411782E0
1.169110833E1,-7.087741922E-1,2.777333149E-1,1.832399856E0,1.984234332E0
1.170116933E1,-7.370443104E-1,2.129266138E-1,1.650625709E0,1.820202541E0
1.171123033E1,-7.570668579E-1,1.244066393E-1,1.416136574E0,1.610611696E0
1.172129221E1,-7.258367329E-1,1.385939945E-2,1.600037354E0,1.757028907E0
1.173135221E1,-6.322104581E-1,-7.789390258E-2,2.130047691E0,2.223254527E0
1.174141321E1,-4.971113079E-1,-2.109284009E-1,2.585742257E0,2.641528623E0
1.175147421E1,-3.857324112E-1,-2.863512336E-1,2.977167152E0,3.015677498E0
1.176153521E1,-4.150124898E-1,-2.543662331E-1,3.192712478E0,3.229605319E0
1.177159621E1,-4.322894771E-1,-1.585848939E-1,3.432547138E0,3.463293694E0
1.178165621E1,-3.581400584E-1,-9.541395139E-2,3.407433347E0,3.427531201E0
1.179171721E1,-2.289125725E-1,-2.087530905E-1,2.900028344E0,2.916529310E0
1.180177821E1,-2.173958234E-2,-5.067919946E-1,2.270997164E0,2.326959143E0
1.181183921E1,1.729301604E-1,-7.569689901E-1,1.688385274E0,1.858373408E0
1.182189921E1,2.695398308E-1,-8.435126057E-1,1.055562758E0,1.377816379E0
1.183196021E1,3.113692767E-1,-8.705675264E-1,4.315765554E-1,1.020341594E0
1.184202121E1,2.871707209E-1,-8.532679541E-1,5.222733021E-2,9.018098018E-1
1.185208221E1,2.207391152E-1,-8.158051358E-1,-1.486157566E-1,8.581086293E-1
1.186214321E1,1.275337668E-1,-8.006476180E-1,-1.581718612E-1,8.260265174E-1
1.187220321E1,4.169422902E-2,-8.711369721E-1,-6.545665562E-2,8.745871064E-1
1.188226421E1,-7.108518541E-2,-9.338607122E-1,1.783207816E-1,9.533872427E-1
1.189232521E1,-1.926197820E-1,-9.193409063E-1,4.079771930E-1,1.024077864E0
1.190238621E1,-2.377472037E-1,-9.597031396E-1,6.139804476E-1,1.163840985E0
1.191244621E1,-1.267527249E-1,-1.069186259E0,6.603289872E-1,1.263035978E0
1.192250721E1,6.316403545E-2,-1.190894884E0,4.967893821E-1,1.291905573E0
1.193256821E1,2.273228607E-1,-1.214098170E0,4.103236806E-1,1.301566584E0
1.194262921E1,2.530195463E-1,-1.070861852E0,2.863784963E-1,1.137003360E0
1.195269021E1,2.121707515E-1,-8.766508234E-1,-8.979919910E-2,9.064198751E-1
1.196275021E1,1.333336200E-1,-7.145376465E-1,-4.204990053E-1,8.397388379E-1
1.197281121E1,2.347218543E-3,-5.846084947E-1,-8.290422088E-1,1.014437571E0
1.198287221E1,-1.853856068E-1,-4.602265234E-1,-1.408915848E0,1.493726930E0
1.199293321E1,-3.758319788E-1,-3.483892415E-1,-2.082956555E0,2.145071736E0
1.200299321E1,-4.569303017E-1,-2.667880581E-1,-2.640503186E0,2.692994290E0
1.201305421E1,-5.368805970E-1,-1.777432960E-1,-2.958384141E0,3.011954545E0
1.202311521E1,-6.241817924E-1,-9.040833279E-2,-3.233047741E0,3.293990630E0
1.203317621E1,-6.659347129E-1,-2.103842810E-2,-3.442120784E0,3.506010147E0
1.204323721E1,-6.813688771E-1,4.853495970E-2,-3.518839177E0,3.584529027E0
1.205329721E1,-7.153682435E-1,1.441977467E-1,-3.573082627E0,3.646843042E0
1.206335821E1,-7.001837553E-1,2.912995130E-1,-3.612632609E0,3.691371976E0
1.207341921E1,-7.000673957E-1,4.021893266E-1,-3.580453627E0,3.670354041E0
1.208348021E1,-6.841748098E-1,4.979721276E-1,-3.442751698E0,3.545223641E0
1.209354021E1,-6.051226468E-1,6.430143584E-1,-3.231482441E0,3.349943231E0
1.210360121E1,-5.070421458E-1,7.543710722E-1,-2.964320819E0,3.100542754E0
1.211366221E1,-4.033451018E-1,7.194784706E-1,-2.635827752E0,2.761869744E0
1.212372321E1,-3.253541355E-1,5.136537753E-1,-2.339763928E0,2.417476112E0
1.213378421E1,-2.315061233E-1,2.297872429E-1,-2.045070106E0,2.070919844E0
1.214384421E1,-1.844719063E-1,4.389870241E-2,-1.696998222E0,1.707559647E0
1.215390521E1,-2.094387314E-1,1.097544305E-2,-1.269293693E0,1.286503604E0
1.216396621E1,-3.140983915E-1,1.402349424E-1,-7.845811504E-1,8.566745124E-1
1.217402721E1,-4.006233326E-1,2.802377504E-1,-4.085993367E-1,6.371700474E-1
1.218408821E1,-4.481450064E-1,3.250610438E-1,-2.194360632E-1,5.955256625E-1
1.219414821E1,-5.247144415E-1,2.492988168E-1,-1.049586904E-1,5.903316626E-1
1.220420921E1,-6.260176720E-1,1.372044767E-1,2.393557727E-2,6.413237138E-1
1.221427021E1,-6.598650838E-1,9.648454003E-2,1.290205675E-1,6.792477472E-1
1.222433121E1,-6.496558452E-1,1.209398617E-1,8.940451205E-2,6.668375621E-1
1.223439121E1,-6.107757715E-1,1.929133853E-1,1.154392397E-1,6.508370267E-1
1.224445221E1,-5.592973600E-1,2.495388450E-1,1.477965617E-1,6.300214248E-1
1.225451321E1,-5.263519177E-1,3.044960940E-1,1.802456850E-1,6.342339627E-1
1.226457421E1,-5.616231631E-1,4.464884902E-1,2.833671802E-1,7.714074851E-1
1.227463521E1,-6.804673827E-1,6.237213973E-1,3.470322490E-1,9.861519265E-1
1.228469521E1,-6.913502204E-1,7.391025303E-1,4.439112568E-1,1.105122112E0
1.229475621E1,-6.527357199E-1,8.101941477E-1,5.234450841E-1,1.164677309E0
1.230481721E1,-6.817561090E-1,8.902015994E-1,7.041749185E-1,1.324051583E0
1.231487821E1,-7.226901269E-1,9.837034748E-1,8.451261449E-1,1.484652062E0
1.232493821E1,-6.455092192E-1,9.570158324E-1,1.047978335E0,1.559108735E0
1.233499921E1,-4.651856931E-1,8.603666201E-1,1.409249724E0,1.715404685E0
1.234506021E1,-2.029746162E-1,7.600642868E-1,1.911135539E0,2.066720945E0
1.235512121E1,1.407745765E-1,5.438077568E-1,2.568726275E0,2.629429412E0
1.236518221E1,4.124420172E-1,3.110533443E-1,3.233340102E0,3.274347388E0
1.237524221E1,5.347961377E-1,2.074066960E-1,3.757341841E0,3.800873867E0
1.238530321E1,5.621246715E-1,1.644514053E-1,4.155105702E0,4.196180621E0
1.239536421E1,5.269369682E-1,6.109846998E-2,4.190439257E0,4.223881717E0
1.240542521E1,4.702937476E-1,-1.046545256E-1,3.796059179E0,3.826511998E0
1.241548521E1,3.726577447E-1,-2.311199695E-1,3.112288120E0,3.143028408E0
1.242554621E1,1.971708710E-1,-2.412309017E-1,2.584951714E0,2.603659744E0
1.243560721E1,-2.835177826E-2,-1.057764235E-1,2.356433755E0,2.358977007E0
1.244566821E1,-1.837179444E-1,1.663277037E-1,2.147027421E0,2.161282937E0
1.245572921E1,-2.825584007E-1,4.420893009E-1,1.953721395E0,2.022945746E0
1.246578921E1,-3.509616875E-1,5.878090778E-1,1.921179301E0,2.039515512E0
1.247585021E1,-3.310585694E-1,5.697894575E-1,1.988552674E0,2.094898933E0
1.248591121E1,-2.312403856E-1,3.142639043E-1,1.991868630E0,2.029722778E0
1.249597221E1,-3.317775942E-2,-6.315296229E-2,1.984587677E0,1.985869409E0
1.250603221E1,1.479127386E-1,-4.415088917E-1,1.969987764E0,2.024267786E0
1.251609321E1,1.315941099E-1,-6.794909707E-1,1.808870076E0,1.936759133E0
1.252615421E1,-7.655558456E-2,-7.823309956E-1,1.643495030E0,1.821806372E0
1.253621521E1,-3.204308895E-1,-8.757994688E-1,1.542121267E0,1.802176092E0
1.254627621E1,-5.273692602E-1,-9.791494440E-1,1.383751186E0,1.775280066E0
1.255633621E1,-6.393439881E-1,-1.056241035E0,1.156811975E0,1.691927837E0
1.256639721E1,-6.735704456E-1,-1.125546694E0,8.868606466E-1,1.583374344E0
1.257645821E1,-6.960866113E-1,-1.203359978E0,7.713980180E-1,1.589863739E0
1.258651921E1,-6.971871304E-1,-1.221444758E0,7.588820529E-1,1.598092351E0
1.259657921E1,-6.282077466E-1,-1.216770567E0,7.305148709E-1,1.552039807E0
1.260664021E1,-4.867119983E-1,-1.292924338E0,7.557064301E-1,1.574685404E0
1.261670121E1,-3.279473756E-1,-1.412159590E0,8.052738619E-1,1.658375766E0
1.262676221E1,-2.033043444E-1,-1.513877169E0,8.505266333E-1,1.748299829E0
1.263682321E1,-1.581847250E-1,-1.552666136E0,8.644886148E-1,1.784134273E0
1.264688321E1,-1.275105789E-1,-1.558569046E0,7.498288089E-1,1.734254786E0
1.265694421E1,-1.141197790E-1,-1.582763509E0,4.765983617E-1,1.656897597E0
1.266700521E1,-7.605027549E-2,-1.611399663E0,2.528663492E-1,1.632891273E0
1.267706621E1,-5.269525364E-2,-1.628670292E0,-1.919167274E-1,1.640785098E0
1.268712621E1,-5.997617003E-2,-1.703085174E0,-7.806886590E-1,1.874452195E0
1.269718721E1,-1.305592623E-1,-1.678497925E0,-1.169866469E0,2.050119157E0
1.270724821E1,-2.174359865E-1,-1.539844800E0,-1.518365784E0,2.173438536E0
1.271730921E1,-2.530511578E-1,-1.378263427E0,-1.927396061E0,2.382960457E0
1.272736938E1,-2.404099161E-1,-1.242783733E0,-2.289159200E0,2.615828392E0
1.273742938E1,-2.141054125E-1,-1.173905287E0,-2.590976685E0,2.852552354E0
1.274749038E1,-1.870728574E-1,-1.094684870E0,-2.872396157E0,3.079608888E0
1.275755138E1,-1.667288593E-1,-9.836257799E-1,-3.033009231E0,3.192876945E0
1.276761238E1,-1.625160500E-1,-8.432374942E-1,-3.155216038E0,3.269992230E0
1.277767238E1,-2.074418890E-1,-6.897863826E-1,-3.278675904E0,3.356866556E0
1.278773338E1,-2.513489419E-1,-5.467732818E-1,-3.290448103E0,3.345024070E0
1.279779437E1,-2.847774190E-1,-4.304246539E-1,-3.229293244E0,3.270274976E0
1.280785537E1,-3.307214775E-1,-3.629318516E-1,-3.112269993E0,3.150765103E0
1.281791638E1,-3.723206892E-1,-4.035181063E-1,-2.908182871E0,2.959556921E0
1.282797638E1,-3.896773084E-1,-3.842658564E-1,-2.669609456E0,2.725128126E0
1.283803738E1,-3.641606805E-1,-3.034044188E-1,-2.336553222E0,2.384145172E0
1.284809838E1,-3.147427182E-1,-2.240746593E-1,-2.034509450E0,2.070869657E0
1.285815938E1,-2.960552545E-1,-1.646695796E-1,-1.743237419E0,1.775849510E0
1.286821938E1,-3.176934059E-1,-1.512458342E-1,-1.431581994E0,1.474188390E0
1.287828038E1,-3.771474196E-1,-1.229520348E-1,-1.221628361E0,1.284419414E0
1.288834137E1,-5.031569269E-1,-4.781553291E-2,-1.058802701E0,1.173250347E0
1.289840237E1,-6.254732231E-1,6.632233590E-2,-8.269535834E-1,1.038974318E0
1.290846338E1,-6.888069740E-1,1.829578429E-1,-5.920586514E-1,9.265322803E-1
1.291852338E1,-6.900321119E-1,2.448182416E-1,-3.738481647E-1,8.220965497E-1
1.292858438E1,-6.896511658E-1,2.776743311E-1,-3.712087315E-1,8.309739388E-1
1.293864538E1,-6.587436609E-1,3.197343034E-1,-3.960979897E-1,8.325063681E-1
1.294870638E1,-6.248041555E-1,3.931618834E-1,-3.460224348E-1,8.152840147E-1
1.295876638E1,-5.775123869E-1,4.558612114E-1,-4.583515406E-1,8.668426246E-1
1.296882738E1,-5.556710630E-1,5.208687278E-1,-5.329742914E-1,9.295892411E-1
1.297888837E1,-5.788943763E-1,5.975594196E-1,-5.185421938E-1,9.803478799E-1
1.298894937E1,-6.455690069E-1,7.256219208E-1,-5.197993451E-1,1.101579717E0
1.299901038E1,-7.464938495E-1,8.922095333E-1,-5.043287820E-1,1.267926827E0
1.300907038E1,-8.135555658E-1,1.060194338E0,-3.318587244E-1,1.376958571E0
1.301913138E1,-7.748227322E-1,1.172904755E0,-1.324505442E-1,1.411948646E0
1.302919238E1,-6.754509102E-1,1.139331212E0,5.462176502E-2,1.325629315E0
1.303925338E1,-5.283385823E-1,9.002137868E-1,2.649560523E-1,1.076906788E0
1.304931338E1,-4.100130839E-1,6.056497733E-1,6.441123194E-1,9.745783995E-1
1.305937438E1,-2.966157284E-1,3.984791952E-1,1.190203085E0,1.289709247E0
1.306943537E1,-2.441149677E-1,2.762719495E-1,1.444804303E0,1.491099521E0
1.307949637E1,-3.037532052E-1,2.540534802E-1,1.705595384E0,1.750961106E0
1.308955738E1,-4.756525746E-1,2.685827878E-1,2.081360266E0,2.151846333E0
1.309961738E1,-6.694377798E-1,3.113440241E-1,2.418908916E0,2.529071447E0
1.310967838E1,-7.715053144E-1,4.422678603E-1,2.571673856E0,2.721089439E0
1.311973938E1,-8.011305980E-1,5.349597866E-1,2.670105300E0,2.838565575E0
1.312980038E1,-7.084908946E-1,5.049495370E-1,2.994495960E0,3.118323178E0
1.313986038E1,-5.984882498E-1,3.534543556E-1,3.323855585E0,3.395752364E0
1.314992138E1,-5.178003283E-1,1.774117588E-1,3.526463946E0,3.568688845E0
1.315998237E1,-4.685679054E-1,4.074705318E-2,3.809430592E0,3.838356112E0
1.317004337E1,-3.925250486E-1,-1.274607497E-1,4.112291220E0,4.132948250E0
1.318010438E1,-3.544926749E-1,-3.766960145E-1,4.128890296E0,4.161165704E0
1.319016438E1,-3.872823254E-1,-5.913190518E-1,3.882618436E0,3.946437855E0
1.320022538E1,-4.171088628E-1,-6.594273466E-1,3.600164591E0,3.683749355E0
1.321028638E1,-3.933367152E-1,-6.844006585E-1,3.127775640E0,3.225848491E0
1.322034738E1,-2.872659574E-1,-7.465558299E-1,2.413811313E0,2.542902356E0
1.323040738E1,-1.365881802E-1,-8.704244889E-1,1.807620526E0,2.010916977E0
1.324046838E1,4.496362656E-2,-9.543810770E-1,1.309994407E0,1.621403810E0
1.325052937E1,2.360252718E-1,-9.900869532E-1,8.791364747E-1,1.344939049E0
1.326059037E1,4.212535885E-1,-1.023994591E0,5.850115871E-1,1.252301108E0
1.327065138E1,6.180741564E-1,-1.085760850E0,4.507875824E-1,1.328194914E0
1.328071138E1,7.835550372E-1,-1.155399142E0,3.673717886E-1,1.443560773E0
1.329077238E1,9.632456021E-1,-1.278756535E0,3.212846196E-1,1.632876043E0
1.330083338E1,1.123702482E0,-1.426711410E0,2.593216753E-1,1.834519132E0
1.331089438E1,1.209339999E0,-1.538226145E0,1.910279506E-1,1.965994553E0
1.332095538E1,1.209623442E0,-1.520352230E0,-1.558049083E-2,1.942910838E0
1.333101538E1,1.138341060E0,-1.428654440E0,-4.202820736E-1,1.874436154E0
1.334107637E1,1.021137496E0,-1.370037126E0,-9.564331573E-1,1.958184847E0
1.335113737E1,8.467259431E-1,-1.285997142E0,-1.516932047E0,2.161438481E0
1.336119838E1,6.511186724E-1,-1.127423358E0,-1.901431500E0,2.304448025E0
1.337125838E1,4.522151070E-1,-9.088655464E-1,-2.288739955E0,2.503770290E0
1.338131938E1,3.128774564E-1,-7.245788506E-1,-2.736110424E0,2.847666952E0
1.339138038E1,2.610526339E-1,-5.723097537E-1,-3.015383384E0,3.080296071E0
1.340144138E1,1.918255839E-1,-4.437599601E-1,-3.292923229E0,3.328222251E0
1.341150138E1,1.328356382E-1,-2.929752519E-1,-3.451129589E0,3.466089330E0
1.342156238E1,8.898691121E-2,-1.051007777E-1,-3.571331386E0,3.573985550E0
1.343162337E1,5.810945556E-2,6.933927990E-2,-3.676331592E0,3.677444577E0
1.344168437E1,3.524734486E-2,2.036018763E-1,-3.688488538E0,3.694271754E0
1.345174538E1,1.775426634E-2,2.891364817E-1,-3.633011325E0,3.644542002E0
1.346180538E1,1.192128500E-2,3.746812467E-1,-3.526618897E0,3.546486853E0
1.347186638E1,2.905766509E-2,4.980919225E-1,-3.322972071E0,3.360220721E0
1.348192738E1,7.443669979E-2,6.899538323E-1,-3.090430643E0,3.167386726E0
1.349198838E1,1.316796985E-1,8.477671129E-1,-2.867184534E0,2.992790633E0
1.350204938E1,1.968347474E-1,8.343772084E-1,-2.660601236E0,2.795304667E0
1.351210938E1,2.644231334E-1,6.890175468E-1,-2.315721347E0,2.430479403E0
1.352217037E1,3.293859369E-1,5.486517730E-1,-1.825023594E0,1.933966127E0
1.353223137E1,4.213402735E-1,4.571022829E-1,-1.446467836E0,1.574401259E0
1.354229238E1,4.574756277E-1,4.344237109E-1,-1.054783325E0,1.229054829E0
1.355235238E1,4.302873905E-1,4.840312692E-1,-6.563324153E-1,9.220660212E-1
1.356241338E1,3.209116038E-1,5.427202843E-1,-3.817366433E-1,7.370565984E-1
1.357247438E1,1.902868709E-1,6.315326196E-1,-1.158596545E-1,6.696760429E-1
1.358253538E1,1.655419841E-2,7.040755159E-1,1.170437157E-1,7.139296919E-1
1.359259638E1,-1.947991855E-1,8.102028454E-1,2.344330019E-1,8.656409219E-1
1.360265638E1,-4.177321760E-1,8.868157692E-1,2.749021661E-1,1.018093110E0
1.361271737E1,-5.784577355E-1,9.016247199E-1,3.266324830E-1,1.119923777E0
1.362277837E1,-6.009421800E-1,9.165465219E-1,3.590453535E-1,1.153300740E0
1.363283938E1,-5.527443123E-1,9.899627730E-1,3.675922287E-1,1.191921396E0
1.364289938E1,-4.911051576E-1,1.168374406E0,4.498730779E-1,1.344867582E0
1.365296038E1,-4.099435020E-1,1.407988625E0,6.550395960E-1,1.606101652E0
1.366302138E1,-2.965565070E-1,1.587557934E0,7.091175699E-1,1.763840606E0
1.367308238E1,-2.255847759E-1,1.635137166E0,5.827896452E-1,1.750487307E0
1.368314338E1,-2.870821721E-1,1.592442551E0,5.111021966E-1,1.696913347E0
1.369320338E1,-4.089142824E-1,1.572508370E0,7.469876468E-1,1.788290806E0
1.370326437E1,-4.882890654E-1,1.563328972E0,1.109391056E0,1.978173957E0
1.371332537E1,-4.332570451E-1,1.497010876E0,1.398851620E0,2.094167874E0
1.372338696E1,-3.072415079E-1,1.256723057E0,1.716729652E0,2.149630406E0
1.373344796E1,-1.055930768E-1,8.430334995E-1,2.260131868E0,2.414549945E0
1.374350796E1,1.211728915E-1,4.138347875E-1,3.059112956E0,3.089354978E0
1.375356896E1,2.892137563E-1,1.775190552E-1,3.916339329E0,3.931014036E0
1.376362996E1,3.821187589E-1,1.040200204E-1,4.427992333E0,4.445666543E0
1.377369096E1,3.698427489E-1,6.503286039E-2,4.660121532E0,4.675226799E0
1.378375096E1,3.133655892E-1,-1.311208234E-1,4.522332480E0,4.535072405E0
1.379381196E1,2.673277012E-1,-3.561050811E-1,4.038439132E0,4.062913431E0
1.380387296E1,2.241812614E-1,-5.373644540E-1,3.248288509E0,3.300060004E0
1.381393396E1,9.774820556E-2,-6.368894000E-1,2.546686950E0,2.626936855E0
1.382399496E1,-1.644006442E-1,-4.909446515E-1,2.125356470E0,2.187508708E0
1.383405496E1,-3.701938011E-1,-1.626812339E-1,1.717649419E0,1.764604250E0
1.384411596E1,-4.268512011E-1,9.996549714E-2,1.341180532E0,1.411013915E0
1.385417696E1,-4.537544962E-1,1.799115897E-1,1.145864818E0,1.245498898E0
1.386423796E1,-4.491495580E-1,1.097202974E-1,1.217999579E0,1.302803455E0
1.387429896E1,-3.509487506E-1,-5.166724004E-2,1.342548780E0,1.388622251E0
1.388435896E1,-2.167129418E-1,-2.926633029E-1,1.336979308E0,1.385687547E0
1.389441996E1,-1.444259708E-1,-5.875814750E-1,1.239322035E0,1.379141022E0
1.390448096E1,-2.408301116E-1,-8.649068369E-1,1.075692383E0,1.401134213E0
1.391454196E1,-4.383870998E-1,-1.044912421E0,9.428249323E-1,1.474090930E0
1.392460296E1,-6.421646118E-1,-1.107092004E0,7.620325327E-1,1.489537403E0
1.393466296E1,-8.050162920E-1,-1.137915163E0,6.046213943E-1,1.519364729E0
1.394472396E1,-8.658130091E-1,-1.219886475E0,4.769117725E-1,1.570095544E0
1.395478496E1,-9.144140424E-1,-1.275356671E0,5.201536864E-1,1.653253622E0
1.396484596E1,-8.911281639E-1,-1.353052134E0,5.501007861E-1,1.710985201E0
1.397490696E1,-7.587044437E-1,-1.496915858E0,6.768719298E-1,1.809570427E0
1.398496696E1,-5.620053517E-1,-1.661180226E0,1.007362990E0,2.022411915E0
1.399502796E1,-3.787907795E-1,-1.764454333E0,1.417138787E0,2.294572703E0
1.400508896E1,-2.903054863E-1,-1.821880131E0,1.643578060E0,2.470804186E0
1.401514996E1,-2.790691844E-1,-1.882544116E0,1.665338473E0,2.528874095E0
1.402520996E1,-3.039120485E-1,-1.887967993E0,1.558558960E0,2.466960014E0
1.403527096E1,-3.239626443E-1,-1.841332355E0,1.228200631E0,2.236947346E0
1.404533196E1,-3.271663338E-1,-1.791007417E0,8.788096154E-1,2.021645794E0
1.405539296E1,-2.897757286E-1,-1.741055238E0,3.781183863E-1,1.805053138E0
1.406545396E1,-2.842839140E-1,-1.656798030E0,-2.222123212E-1,1.695634209E0
1.407551396E1,-3.401753288E-1,-1.511166546E0,-6.970278668E-1,1.698585126E0
1.408557496E1,-3.643214424E-1,-1.320392219E0,-1.077468182E0,1.742728725E0
1.409563596E1,-3.769525246E-1,-1.126868384E0,-1.536148337E0,1.942080655E0
1.410569696E1,-3.449730789E-1,-9.817011689E-1,-1.935793832E0,2.197735510E0
1.411575796E1,-3.119111309E-1,-9.046576707E-1,-2.272039722E0,2.465331327E0
1.412581796E1,-2.086625866E-1,-8.389133321E-1,-2.530870816E0,2.674438771E0
1.413587896E1,-7.854736548E-2,-8.044932586E-1,-2.729478512E0,2.846652779E0
1.414593996E1,-6.067973625E-2,-7.488982245E-1,-2.904923049E0,3.000518039E0
1.415600096E1,-8.820744082E-2,-6.410299596E-1,-2.974672145E0,3.044236248E0
1.416606196E1,-1.210639140E-1,-4.691811687E-1,-2.926816193E0,2.966654761E0
1.417612196E1,-2.030049852E-1,-2.550285034E-1,-2.865160228E0,2.883642435E0
1.418618296E1,-3.248981258E-1,-3.981793061E-2,-2.744388912E0,2.763840582E0
1.419624396E1,-3.771402567E-1,1.183306879E-1,-2.471267223E0,2.502678288E0
1.420630496E1,-4.161175404E-1,1.596145155E-1,-2.264228427E0,2.307674364E0
1.421636596E1,-4.440860154E-1,1.134552795E-1,-2.170593454E0,2.218459022E0
1.422642596E1,-3.798523415E-1,6.713042110E-2,-2.125641230E0,2.160357594E0
1.423648696E1,-3.269587211E-1,3.492878124E-2,-2.041476408E0,2.067788178E0
1.424654796E1,-3.271487191E-1,1.089375745E-1,-1.962284058E0,1.992348464E0
1.425660896E1,-3.335869420E-1,2.863967688E-1,-1.797420643E0,1.850411934E0
1.426666996E1,-3.540496021E-1,4.880780540E-1,-1.581698146E0,1.692731619E0
1.427672996E1,-4.115975331E-1,6.430542657E-1,-1.419146721E0,1.611492703E0
1.428679096E1,-4.696616636E-1,6.670734581E-1,-1.223132849E0,1.470245913E0
1.429685196E1,-5.441331909E-1,6.482196960E-1,-9.240916228E-1,1.253082212E0
1.430691296E1,-6.883503065E-1,6.626950631E-1,-5.826756245E-1,1.119152257E0
1.431697396E1,-8.092237291E-1,6.845627725E-1,-3.724775773E-1,1.123480654E0
1.432703396E1,-8.767152889E-1,6.814742732E-1,-1.225938928E-1,1.117168808E0
1.433709496E1,-9.124355639E-1,6.983275567E-1,1.035389864E-1,1.153655216E0
1.434715596E1,-9.212318958E-1,7.124757721E-1,1.204707688E-1,1.170813024E0
1.435721696E1,-9.171619414E-1,7.088871896E-1,5.598533571E-2,1.160534977E0
1.436727796E1,-9.259675558E-1,7.026853403E-1,6.387615323E-2,1.164157534E0
1.437733796E1,-9.914326899E-1,7.801751272E-1,1.449273330E-1,1.269888160E0
1.438739896E1,-1.061462964E0,9.092673232E-1,1.621888983E-1,1.407045105E0
1.439745996E1,-1.119729445E0,1.026678536E0,8.632887661E-2,1.521616089E0
1.440752096E1,-1.085537632E0,1.123078073E0,-8.038108885E-2,1.564019638E0
1.441758196E1,-1.000228656E0,1.105938275E0,-1.658767372E-1,1.500357266E0
1.442764196E1,-8.955630577E-1,9.662933171E-1,-2.173819363E-2,1.317660242E0
1.443770296E1,-7.420368824E-1,8.060974422E-1,2.458344877E-1,1.122874177E0
1.444776396E1,-6.263114946E-1,7.026656060E-1,5.673079723E-1,1.099019280E0
1.445782496E1,-5.962644440E-1,6.037539598E-1,9.362538314E-1,1.263574837E0
1.446788596E1,-5.230904505E-1,3.930324407E-1,1.274331070E0,1.432486577E0
1.447794596E1,-5.331605253E-1,1.837714098E-1,1.540365348E0,1.640352853E0
1.448800696E1,-5.776225338E-1,1.041311632E-1,1.675230208E0,1.775073897E0
1.449806796E1,-6.409092877E-1,1.230523145E-1,1.911067126E0,2.019426688E0
1.450812896E1,-6.594054195E-1,1.750412245E-1,2.266339856E0,2.366801910E0
1.451818996E1,-5.996550251E-1,1.784785102E-1,2.549732180E0,2.625371386E0
1.452824996E1,-4.659934860E-1,9.997730121E-2,2.909669234E0,2.948443732E0
1.453831096E1,-2.896442393E-1,2.729918808E-2,3.258588964E0,3.271550254E0
1.454837196E1,-3.666708536E-2,-7.449484304E-2,3.552983993E0,3.553954025E0
1.455843296E1,1.826347842E-1,-3.346715274E-1,3.726900067E0,3.746350838E0
1.456849396E1,2.891790933E-1,-6.477408090E-1,3.630423932E0,3.699076997E0
1.457855396E1,3.305680977E-1,-8.304820856E-1,3.413979889E0,3.529055744E0
1.458861496E1,3.890101410E-1,-9.133410783E-1,3.009691120E0,3.169189400E0
1.459867596E1,4.017697158E-1,-9.495670643E-1,2.430771747E0,2.640406749E0
1.460873696E1,4.159096719E-1,-9.736524765E-1,1.847301486E0,2.129202381E0
1.461879796E1,3.500064352E-1,-9.305146430E-1,1.408684883E0,1.724167945E0
1.462885796E1,2.145929606E-1,-8.683895847E-1,1.167300711E0,1.470626247E0
1.463891896E1,1.270353282E-1,-8.076051468E-1,9.568003625E-1,1.258503469E0
1.464897996E1,6.945589531E-2,-7.442897415E-1,7.753437191E-1,1.077009389E0
1.465904096E1,9.768007636E-2,-6.586632617E-1,5.836088401E-1,8.854253034E-1
1.466910196E1,2.215806026E-1,-6.489220928E-1,3.630173671E-1,7.758733497E-1
1.467916196E1,4.311406454E-1,-7.723832738E-1,1.580128169E-1,8.985689891E-1
1.468922296E1,5.806731724E-1,-8.567517252E-1,-5.978894949E-2,1.036715762E0
1.469928396E1,6.792291617E-1,-9.178068893E-1,-3.308266908E-1,1.188767445E0
1.470934496E1,7.372082517E-1,-9.933872679E-1,-5.996249485E-1,1.374716098E0
1.471941021E1,6.972442869E-1,-1.029715434E0,-8.397665870E-1,1.500557027E0
1.472947021E1,5.782264050E-1,-1.006235355E0,-1.138894352E0,1.626018361E0
1.473953121E1,4.021300504E-1,-9.622787650E-1,-1.416932965E0,1.759371486E0
1.474959221E1,1.929775585E-1,-8.735488755E-1,-1.737939257E0,1.954676658E0
1.475965321E1,3.638283759E-3,-8.230659159E-1,-2.066873789E0,2.224728747E0
1.476971421E1,-1.748425288E-1,-8.082575499E-1,-2.415260838E0,2.552907184E0
1.477977521E1,-3.330962145E-1,-7.972206379E-1,-2.733118989E0,2.866435633E0
1.478983521E1,-4.059478803E-1,-7.671962088E-1,-2.940602174E0,3.066027536E0
1.479989621E1,-4.448099738E-1,-7.030217014E-1,-3.076204952E0,3.186711837E0
1.480995721E1,-4.664589609E-1,-6.334502140E-1,-3.168748834E0,3.264936800E0
1.482001821E1,-4.451466638E-1,-5.659527339E-1,-3.168497404E0,3.249282051E0
1.483007921E1,-3.867760661E-1,-4.777004157E-1,-3.160025958E0,3.219247966E0
1.484013921E1,-3.226423430E-1,-3.501824364E-1,-3.123283809E0,3.159371389E0
1.485020021E1,-2.436370675E-1,-1.828832178E-1,-3.042198130E0,3.057413083E0
1.486026121E1,-1.257157212E-1,-2.936442465E-2,-2.985349746E0,2.988139859E0
1.487032221E1,3.441897713E-2,4.700883642E-2,-2.917090520E0,2.917672291E0
1.488038321E1,1.977625909E-1,-6.157118082E-4,-2.752924093E0,2.760018385E0
1.489044321E1,2.548212196E-1,-3.286588356E-2,-2.582748483E0,2.595496821E0
1.490050421E1,2.343154728E-1,1.223617584E-2,-2.314250187E0,2.326114226E0
1.491056521E1,1.682602816E-1,1.780111715E-1,-1.987422407E0,2.002460318E0
1.492062621E1,8.643770792E-2,3.739709562E-1,-1.684947111E0,1.728112415E0
1.493068721E1,3.649634667E-2,4.096475963E-1,-1.460706391E0,1.517500015E0
1.494074721E1,-3.451509073E-2,3.346034074E-1,-1.270114642E0,1.313903321E0
1.495080821E1,-1.138656809E-1,2.670806381E-1,-1.093705316E0,1.131586841E0
1.496086921E1,-1.511969734E-1,2.009075524E-1,-9.738590294E-1,1.005796092E0
1.497093021E1,-1.706750720E-1,1.615894125E-1,-9.534504926E-1,9.819923423E-1
1.498099121E1,-1.638828732E-1,1.780727135E-1,-9.415765518E-1,9.721799681E-1
1.499105221E1,-1.046937019E-1,2.358792376E-1,-7.616922247E-1,8.042231228E-1
1.500111221E1,-7.011348780E-2,3.361238296E-1,-6.652377248E-1,7.486229762E-1
1.501117321E1,-8.016850602E-2,4.547215891E-1,-6.180249667E-1,7.714619708E-1
1.502123421E1,-8.014489789E-2,5.256842753E-1,-4.434540045E-1,6.924006182E-1
1.503129521E1,-7.050685924E-2,5.409850500E-1,-3.769723320E-1,6.631320989E-1
1.504135621E1,-1.021533425E-1,5.623433208E-1,-3.740428770E-1,6.830617758E-1
1.505141621E1,-1.895209404E-1,6.368961974E-1,-3.138013530E-1,7.348647782E-1
1.506147721E1,-2.878713635E-1,7.610960280E-1,-2.963988698E-1,8.660192699E-1
1.507153821E1,-4.001676518E-1,9.202562879E-1,-3.583670765E-1,1.065566866E0
1.508159921E1,-4.696486536E-1,1.040763748E0,-1.993409371E-1,1.159092682E0
1.509166021E1,-5.234566689E-1,1.120071142E0,1.058638394E-1,1.240876061E0
1.510172121E1,-5.604207563E-1,1.130469465E0,4.725082344E-1,1.347329457E0
1.511178121E1,-3.546596129E-1,1.038482384E0,1.150481780E0,1.589917428E0
1.512184221E1,3.143196356E-2,7.726989504E-1,2.003169544E0,2.147263341E0
1.513190321E1,3.935060286E-1,4.136675571E-1,2.827660280E0,2.884723644E0
1.514196421E1,5.868577724E-1,1.947421020E-1,3.591455748E0,3.644294297E0
1.515202521E1,6.410952292E-1,1.048540983E-1,4.148569685E0,4.199122278E0
1.516208521E1,7.136371022E-1,-2.515194431E-2,4.329813489E0,4.388302107E0
1.517214621E1,7.516456850E-1,-1.484268185E-1,4.077702016E0,4.149054770E0
1.518220721E1,6.363157882E-1,-2.462258857E-1,3.657026424E0,3.720130003E0
1.519226821E1,4.065880407E-1,-3.108881240E-1,3.347264328E0,3.386169479E0
1.520232921E1,1.249815302E-1,-2.633468255E-1,3.178356394E0,3.191695678E0
1.521239021E1,-6.243846908E-2,-1.338471517E-1,2.905839307E0,2.909590298E0
1.522245021E1,-1.941233935E-1,4.037356228E-2,2.755617905E0,2.762742108E0
1.523251121E1,-2.413725505E-1,1.840655613E-1,2.905994843E0,2.921805412E0
1.524257221E1,-1.965163300E-1,2.308722668E-1,3.068187835E0,3.083131081E0
1.525263321E1,-1.495732382E-1,1.818760349E-1,3.167406313E0,3.176147635E0
1.526269421E1,-1.354872591E-1,3.946428370E-2,3.145203851E0,3.148368068E0
1.527275421E1,-1.538241274E-1,-1.511295843E-1,2.870754259E0,2.878842134E0
1.528281521E1,-1.312283300E-1,-3.554817314E-1,2.528896211E0,2.557128113E0
1.529287621E1,-1.885584522E-1,-5.706953009E-1,2.116322522E0,2.200015553E0
1.530293721E1,-2.927300343E-1,-7.479699790E-1,1.757829731E0,1.932644645E0
1.531299821E1,-3.598541696E-1,-8.806090229E-1,1.542290837E0,1.812078447E0
1.532305921E1,-4.040174220E-1,-9.413434672E-1,1.474666033E0,1.795549362E0
1.533311921E1,-4.369427644E-1,-9.688860456E-1,1.453989109E0,1.801039555E0
1.534318021E1,-4.307348487E-1,-1.049826640E0,1.331112211E0,1.749150709E0
1.535324121E1,-3.651785711E-1,-1.131113609E0,1.291737646E0,1.755380167E0
1.536330221E1,-2.705001629E-1,-1.186506621E0,1.215147307E0,1.719753261E0
1.537336321E1,-1.864185175E-1,-1.189231789E0,1.041839928E0,1.591997031E0
1.538342421E1,-1.167231421E-1,-1.175866297E0,8.677507764E-1,1.466041353E0
1.539348421E1,-7.367338233E-2,-1.158893876E0,7.055490142E-1,1.358772312E0
1.540354521E1,-7.756302327E-2,-1.150825377E0,4.853843880E-1,1.251404441E0
1.541360621E1,-5.033063963E-2,-1.136276188E0,1.929972929E-1,1.153648432E0
1.542366721E1,-3.437621936E-2,-1.114958483E0,-8.125056982E-2,1.118443471E0
1.543372821E1,-3.790033624E-2,-1.107802149E0,-3.130008692E-1,1.151794938E0
1.544378821E1,-9.578996390E-2,-1.041121305E0,-6.417874664E-1,1.226784595E0
1.545384921E1,-2.025724009E-1,-9.267086904E-1,-1.046407773E0,1.412371694E0
1.546391021E1,-3.059763897E-1,-8.463202925E-1,-1.463423592E0,1.717989580E0
1.547397121E1,-4.074120596E-1,-7.095544300E-1,-1.766539743E0,1.946821702E0
1.548403221E1,-4.719977725E-1,-6.152177916E-1,-2.006891881E0,2.151485499E0
1.549409321E1,-5.407885835E-1,-5.774189045E-1,-2.267670098E0,2.401706176E0
1.550415321E1,-6.389214537E-1,-4.947269230E-1,-2.478085077E0,2.606507433E0
1.551421421E1,-7.293330755E-1,-3.812913048E-1,-2.672386299E0,2.796240033E0
1.552427521E1,-7.758918956E-1,-2.965419804E-1,-2.823851988E0,2.943481855E0
1.553433621E1,-8.003646858E-1,-2.946094756E-1,-2.906814038E0,3.029347492E0
1.554439721E1,-8.459576190E-1,-3.331755173E-1,-2.922026154E0,3.060210298E0
1.555445821E1,-8.739758684E-1,-3.055375562E-1,-2.944243235E0,3.086382226E0
1.556451821E1,-8.222136842E-1,-2.532187171E-1,-2.889997446E0,3.015334194E0
1.557457921E1,-6.997006291E-1,-2.297067706E-1,-2.650396675E0,2.750808737E0
1.558464021E1,-5.829803375E-1,-2.408491516E-1,-2.438477207E0,2.518738867E0
1.559470121E1,-5.097973173E-1,-3.417019272E-1,-2.372049914E0,2.450158017E0
1.560476221E1,-4.969497420E-1,-4.382762220E-1,-2.248280731E0,2.343888081E0
1.561482321E1,-5.292316349E-1,-4.427099463E-1,-2.075147014E0,2.186850098E0
1.562488321E1,-5.466415002E-1,-3.745396710E-1,-1.977367535E0,2.085444620E0
1.563494421E1,-6.046782584E-1,-2.580137262E-1,-1.829590854E0,1.944121800E0
1.564500521E1,-6.934941021E-1,-1.350952399E-1,-1.663428773E0,1.807257612E0
1.565506621E1,-7.294951165E-1,-6.349469550E-2,-1.550833619E0,1.715015922E0
1.566512721E1,-7.471701530E-1,-5.541128531E-2,-1.474140369E0,1.653609227E0
1.567518821E1,-7.322909626E-1,-1.527577780E-2,-1.447091734E0,1.621899470E0
1.568524821E1,-6.755518477E-1,4.348157667E-2,-1.408560337E0,1.562786988E0
1.569530921E1,-6.341388698E-1,8.123909466E-2,-1.262567641E0,1.415206326E0
1.570537021E1,-6.130750063E-1,2.131817351E-1,-1.053464777E0,1.237374419E0
1.571543121E1,-6.215040600E-1,4.036635558E-1,-1.008676275E0,1.251654661E0
1.572548800E1,-6.737220347E-1,5.619451985E-1,-9.243699503E-1,1.274418923E0
1.573554900E1,-7.364837817E-1,6.420977343E-1,-7.442219138E-1,1.228236182E0
1.574560900E1,-8.379491262E-1,6.638598284E-1,-5.395898312E-1,1.197508161E0
1.575567000E1,-9.494096281E-1,7.265196146E-1,-3.198193073E-1,1.237535366E0
1.576573100E1,-9.863112599E-1,8.503431769E-1,-6.170508206E-2,1.303725791E0
1.577579200E1,-9.111205251E-1,8.989116119E-1,2.149231821E-1,1.297834609E0
1.578585300E1,-7.482625591E-1,8.118022051E-1,5.876048273E-1,1.250679460E0
1.579591400E1,-5.378753545E-1,5.589488659E-1,1.131547326E0,1.371908555E0
1.580597400E1,-3.741340935E-1,2.188166603E-1,1.612388427E0,1.669626752E0
1.581603500E1,-3.389686462E-1,-7.402582325E-2,2.128490578E0,2.156583341E0
1.582609600E1,-3.907711762E-1,-1.539605868E-1,2.325537652E0,2.363161304E0
1.583615700E1,-4.269654411E-1,-1.196916639E-1,2.275152195E0,2.317960977E0
1.584621800E1,-4.525655745E-1,-1.188515652E-1,2.165691733E0,2.215662875E0
1.585627900E1,-4.462323090E-1,-1.728461432E-1,2.004759986E0,2.061082644E0
1.586633900E1,-3.636877504E-1,-2.196304831E-1,1.877570767E0,1.925039821E0
1.587640000E1,-3.653340340E-1,-1.718795254E-1,2.038889599E0,2.078480774E0
1.588646100E1,-4.571620707E-1,4.355039109E-2,2.558198948E0,2.599091313E0
1.589652200E1,-5.201238656E-1,3.103007711E-1,3.173019640E0,3.230304791E0
1.590658300E1,-3.829435086E-1,3.602149428E-1,3.694353880E0,3.731574885E0
1.591664400E1,-4.882585868E-2,-8.402266167E-3,4.019141566E0,4.019446914E0
1.592670400E1,4.225917238E-1,-7.023725143E-1,4.124167500E0,4.204838698E0
1.593676500E1,7.706279397E-1,-1.312330662E0,4.172793530E0,4.441653412E0
1.594682600E1,7.725319393E-1,-1.564409392E0,4.113622046E0,4.468340708E0
1.595688700E1,5.143136336E-1,-1.394812802E0,3.745203606E0,4.029462907E0
1.596694800E1,6.024020836E-2,-9.725860175E-1,3.166905207E0,3.313433421E0
1.597700900E1,-2.356725385E-1,-6.917856187E-1,2.429116985E0,2.536674637E0
1.598706900E1,-2.575251914E-1,-6.390120855E-1,1.670922564E0,1.807384266E0
1.599713000E1,-1.148111757E-1,-6.965244947E-1,1.026362933E0,1.245692116E0
1.600719100E1,1.513311305E-1,-7.617095471E-1,6.080332446E-1,9.863097748E-1
1.601725200E1,4.667051652E-1,-7.659396422E-1,4.064639336E-1,9.847284783E-1
1.602731300E1,7.107088897E-1,-7.079416218E-1,3.738686299E-1,1.070544823E0
1.603737400E1,8.886552302E-1,-5.786026368E-1,3.597417569E-1,1.119778220E0
1.604743400E1,1.100647788E0,-5.412216429E-1,3.545242864E-1,1.276727805E0
1.605749500E1,1.253809682E0,-5.885809834E-1,3.938473964E-1,1.439993772E0
1.606755600E1,1.413608530E0,-7.116016133E-1,4.644279671E-1,1.649351166E0
1.607761700E1,1.449781307E0,-8.260512849E-1,3.929989654E-1,1.714256326E0
1.608767800E1,1.335341210E0,-8.047407420E-1,2.897944397E-1,1.585788330E0
1.609773900E1,1.166011253E0,-7.032204337E-1,7.036890149E-2,1.363470940E0
1.610780000E1,9.504361068E-1,-5.809713073E-1,-3.476391900E-1,1.166923073E0
1.611786000E1,6.969745110E-1,-4.309055508E-1,-8.186546302E-1,1.158295500E0
1.612792100E1,3.924959587E-1,-2.049652277E-1,-1.316839743E0,1.389291449E0
1.613798200E1,8.059655875E-2,1.076640509E-2,-1.811124762E0,1.812949151E0
1.614804300E1,-1.491310425E-1,1.426098622E-1,-2.269558164E0,2.278919020E0
1.615810400E1,-2.917468250E-1,2.245550081E-1,-2.685529670E0,2.710647666E0
1.616816500E1,-4.250596873E-1,2.849363536E-1,-2.935250217E0,2.979523167E0
1.617822500E1,-5.229251204E-1,4.107190986E-1,-3.069433292E0,3.140630763E0
1.618828600E1,-5.301193884E-1,5.399705581E-1,-3.180317550E0,3.269099951E0
1.619834700E1,-5.405726020E-1,6.976910142E-1,-3.289798477E0,3.406136449E0
1.620840800E1,-5.559703673E-1,8.292940045E-1,-3.359482670E0,3.504704753E0
1.621846900E1,-5.710370341E-1,8.911291140E-1,-3.386236605E0,3.547787020E0
1.622853000E1,-5.994270203E-1,9.510586160E-1,-3.336842251E0,3.521127866E0
1.623859000E1,-5.880053616E-1,1.031263484E0,-3.167877599E0,3.383002093E0
1.624865100E1,-5.342719348E-1,9.636946683E-1,-2.943766687E0,3.143233402E0
1.625871200E1,-4.810422456E-1,8.856996819E-1,-2.821330084E0,2.995958780E0
1.626877300E1,-4.116489521E-1,8.340494719E-1,-2.641130008E0,2.800118051E0
1.627883400E1,-3.734227797E-1,7.933953895E-1,-2.448301699E0,2.600596475E0
1.628889500E1,-3.539497975E-1,7.397385612E-1,-2.356890423E0,2.495481128E0
1.629895600E1,-4.104939808E-1,7.250797378E-1,-2.249889885E0,2.399218712E0
1.630901600E1,-5.192844978E-1,6.912296947E-1,-2.052026539E0,2.226716820E0
