"Time (s)","Linear Acceleration x (m/s^2)","Linear Acceleration y (m/s^2)","Linear Acceleration z (m/s^2)","Absolute acceleration (m/s^2)"
1.305116666E-2,6.045041576E-1,1.088389027E-1,-1.796901410E0,1.898980216E0
2.300816667E-2,8.768689245E-1,-5.009175164E-1,-2.266957322E0,2.481715731E0
3.296516667E-2,8.594386670E-1,-3.193930453E-1,-2.102530110E0,2.293747938E0
4.292216664E-2,4.240754548E-1,5.783592099E-1,-1.156491548E0,1.360813017E0
5.287891664E-2,3.460203883E-1,1.279940888E0,1.727910697E-2,1.326000511E0
6.283691665E-2,5.706894171E-1,1.480918461E0,1.008057640E0,1.880155872E0
7.279391665E-2,7.636279455E-1,1.336779917E0,1.361133571E0,2.054943499E0
8.275091666E-2,8.605862562E-1,1.234496328E0,7.685223573E-1,1.689738590E0
9.270791666E-2,8.654504818E-1,9.775796127E-1,-8.716327429E-2,1.308535010E0
1.026649167E-1,7.404188848E-1,-3.942426682E-2,-4.373308003E-1,8.608325195E-1
1.126229167E-1,-3.271122470E-2,5.538845193E-1,-1.117719830E0,1.247860451E0
1.225799166E-1,-3.548353583E-1,8.922126031E-1,-1.284840270E0,1.603984408E0
1.325369166E-1,-6.023753326E-1,3.570818585E-1,-2.022674686E-1,7.288865644E-1
1.424939166E-1,-3.942219105E-1,-1.112894708E-1,2.123474836E-2,4.101794432E-1
1.524519167E-1,1.180085063E-1,1.180652243E-1,-5.292338276E-1,5.549358963E-1
1.624089167E-1,4.758054793E-1,6.790973800E-1,4.316157317E-1,9.348027843E-1
1.723659167E-1,7.746101859E-1,1.306543381E0,1.027742291E0,1.833938593E0
1.823229167E-1,9.676777916E-1,1.706021646E0,2.892968416E-1,1.982574797E0
1.922799167E-1,1.161295035E0,2.091328306E0,-5.897150874E-2,2.392851413E0
2.022379166E-1,1.394881068E0,1.415782525E0,-5.123961854E-1,2.052482206E0
2.121949166E-1,1.789802306E0,1.071822111E0,-6.476422834E-1,2.184407347E0
2.221519166E-1,2.048479910E0,2.048986571E0,-9.291342616E-2,2.898835769E0
2.321089167E-1,1.785960539E0,1.586524146E0,-8.090020466E-1,2.522141595E0
2.420659167E-1,7.585907154E-1,2.438084275E-1,-1.112273149E0,1.368230237E0
2.520239167E-1,-4.496312955E-1,-9.403249553E-1,-1.128661725E0,1.536312668E0
2.619809167E-1,-1.206648818E0,-1.646209892E0,-2.217201025E0,3.013633814E0
2.719379167E-1,-1.140337445E0,-1.943341126E0,-3.384384207E0,4.065833332E0
2.818949167E-1,-9.072203591E-1,-1.988229323E0,-3.411047511E0,4.051092413E0
2.918519166E-1,-1.057208750E0,-1.164163387E0,-3.467829237E0,3.807729816E0
3.018099167E-1,-5.092737722E-1,4.532761574E-3,-2.122666751E0,2.182909631E0
3.117669167E-1,1.478884215E0,2.019812474E-1,-1.443522593E0,2.076451883E0
3.217239167E-1,2.856355491E0,5.543289077E-1,-1.511045655E0,3.278613457E0
3.316809167E-1,2.852071236E0,-7.309154052E-1,-2.057553327E0,3.591945623E0
3.416379167E-1,3.889207664E0,-3.909684905E0,-3.225348712E0,6.388618522E0
3.515959167E-1,5.490905042E0,-6.787207024E0,-3.980069886E0,9.594642967E0
3.615529166E-1,4.543891749E0,-7.749090371E0,-4.772463502E0,1.017210704E1
3.715099166E-1,4.380105391E-1,-6.976091970E0,-5.501329458E0,8.895073817E0
3.814669166E-1,-1.608766954E0,-6.041683520E0,-6.193204758E0,8.800332724E0
3.914239166E-1,-3.088133272E0,-4.455030443E0,-8.187372513E0,9.819212393E0
4.013819167E-1,-1.576730352E1,3.686605734E0,-1.289052137E1,2.069696749E1
4.113389167E-1,-6.310405179E0,-6.573350959E0,-8.054940680E0,1.216191702E1
4.212959167E-1,-5.810319722E-1,-1.173979868E1,-7.403091910E0,1.389122893E1
4.312529167E-1,-2.995140324E0,-7.330801613E0,-6.274374636E0,1.010342986E1
4.412099167E-1,-2.524297961E0,-7.394433353E0,-6.262794811E0,1.001360692E1
4.511679166E-1,-3.196172276E0,-7.167019349E0,-6.335449389E0,1.008561364E1
4.611249166E-1,-3.294156407E0,-7.886906905E0,-5.654593751E0,1.024837536E1
4.710819167E-1,-2.158447033E0,-9.739767923E0,-4.299935387E0,1.086330599E1
4.810389167E-1,-2.487690298E0,-8.586999882E0,-2.778606526E0,9.361934855E0
4.909959167E-1,-2.647276601E0,-6.684642184E0,-1.844617029E0,7.422609144E0
5.009539167E-1,-1.677718783E0,-6.047967523E0,-1.677660019E0,6.496706443E0
5.109109167E-1,-2.118308237E0,-5.248293539E0,-2.075679696E0,6.028288402E0
5.208679167E-1,-2.152822012E0,-5.494069555E0,6.140699100E-1,5.932665905E0
5.308249166E-1,3.494377935E-1,-7.911356453E0,3.024034925E0,8.476818679E0
5.407829167E-1,1.007147228E0,-8.065372113E0,4.898041813E0,9.489751655E0
5.507399167E-1,2.575145348E0,-6.999556262E0,5.994300608E0,9.568531821E0
5.606969167E-1,4.398052835E0,-6.535351658E0,6.277603469E0,1.007283452E1
5.706539167E-1,4.895647963E0,-5.875586343E0,6.465102625E0,1.001436148E1
5.806109167E-1,5.856554241E0,-4.707090754E0,6.136563950E0,9.701203433E0
5.905689167E-1,7.439240566E0,-4.354847174E0,5.768465352E0,1.037218331E1
6.005259166E-1,8.738069131E0,-3.666170008E0,6.627986172E0,1.156394636E1
6.104829166E-1,1.037690159E1,-2.599887841E0,8.223475562E0,1.349314840E1
6.204399166E-1,1.139209868E1,-1.439882409E0,9.576653996E0,1.495210605E1
6.303969166E-1,1.175326482E1,-9.057901302E-1,1.118692807E1,1.625137069E1
6.403549167E-1,1.127045905E1,-1.813469788E0,1.235029828E1,1.681790081E1
6.503119167E-1,1.170431310E1,-3.526683801E-1,1.284785891E1,1.738340584E1
6.602689167E-1,1.351518409E1,2.483698404E0,1.245950673E1,1.854907725E1
6.702259167E-1,1.265819979E1,3.129041562E0,1.108321951E1,1.711311421E1
6.801829167E-1,1.098706673E1,2.739168518E0,9.607774631E0,1.485018562E1
6.901409166E-1,1.042712450E1,2.495259519E0,8.316377878E0,1.356883880E1
7.000979166E-1,1.040722993E1,3.163764668E0,7.632868774E0,1.328836060E1
7.100549166E-1,9.554438669E0,3.715055362E0,7.570091897E0,1.274343855E1
7.200119167E-1,8.133710276E0,4.526448920E0,6.659527223E0,1.144531719E1
7.299689167E-1,7.729109851E0,4.374466921E0,4.865156780E0,1.012644313E1
7.399269167E-1,7.324377277E0,4.127706819E0,3.530140383E0,9.118462437E0
7.498839167E-1,6.651377374E0,4.568436606E0,2.115753003E0,8.341932915E0
7.598409167E-1,5.849228264E0,4.793684217E0,8.106959850E-1,7.605925824E0
7.697979166E-1,5.214881380E0,4.788765539E0,-1.114084616E-1,7.080937440E0
7.797559167E-1,4.248329616E0,5.073989795E0,-8.716043839E-1,6.674831171E0
7.897129167E-1,3.352302289E0,5.307176170E0,-1.508682503E0,6.456018311E0
7.996699167E-1,2.989667330E0,5.063249044E0,-1.767132943E0,6.139817625E0
8.096269167E-1,2.659627090E0,4.863423958E0,-1.699490891E0,5.797825294E0
8.195839167E-1,2.565826641E0,4.551728772E0,-1.212361109E0,5.363909080E0
8.295419167E-1,3.480033545E0,3.868217914E0,-6.130136105E-1,5.239229809E0
8.394989166E-1,4.603846759E0,3.584830853E0,-1.166700786E-1,5.836097080E0
8.494559166E-1,4.666260524E0,3.641397986E0,-3.706447676E-1,5.930526462E0
8.594129166E-1,4.430348761E0,3.775450083E0,-8.011881199E-1,5.875705564E0
8.693699166E-1,3.548098059E0,3.493560494E0,-1.464943429E0,5.190378022E0
8.793279167E-1,2.516892462E0,2.789908901E0,-1.869905652E0,4.197009232E0
8.892849167E-1,1.301076819E0,1.957810353E0,-1.273705418E0,2.673602019E0
8.992419167E-1,1.267179340E-1,9.020563906E-1,-1.546786322E0,1.795079690E0
9.091989167E-1,-1.195075570E0,5.709513724E-2,-3.606776623E0,3.800039878E0
9.191569166E-1,-1.654070304E0,-3.373545223E-1,-3.682878719E0,4.051339569E0
9.291139166E-1,-1.298395870E0,-4.603507036E-1,-1.687345493E0,2.178276708E0
9.390709166E-1,-4.673129833E-1,-5.713144845E-1,-4.466417603E-1,8.627111490E-1
9.490279166E-1,9.910001421E-1,-5.062870145E-1,3.603814423E-2,1.113421111E0
9.589849167E-1,1.514611872E0,5.600112319E-2,3.036328988E-1,1.545761361E0
9.689429167E-1,1.670038465E0,1.516574782E-1,3.826440581E-1,1.720013064E0
9.788999167E-1,1.507428567E0,-4.863538563E-2,4.185377030E-1,1.565209282E0
9.888569167E-1,1.705514107E0,-2.913433671E-2,1.647995339E-1,1.713705362E0
9.988139167E-1,2.340857942E0,5.354377234E-1,-4.960783607E-1,2.452020228E0
1.008770917E0,1.970059685E0,1.637038534E0,-4.026316684E-1,2.592902348E0
1.018728917E0,4.257147217E-1,2.302606042E0,-5.808287814E-2,2.342349511E0
1.028685917E0,8.825530028E-1,1.935319038E0,3.434590155E-1,2.154605225E0
1.038642917E0,1.737560942E0,1.592723072E0,7.991869104E-1,2.488892229E0
1.048600292E0,1.002827890E0,1.581482384E0,4.320753229E-1,1.921832301E0
1.058558292E0,-6.429750359E-1,2.021958987E0,2.834209746E-1,2.140575271E0
1.068515292E0,-1.756007153E0,1.972314371E0,1.315281460E-1,2.644028131E0
1.078472292E0,-2.002268488E0,1.682731601E0,-8.885721266E-3,2.615481542E0
1.088429292E0,-2.398717310E0,1.517395731E0,2.139963984E-1,2.846423897E0
1.098386292E0,-4.504950462E0,1.701690028E0,3.482224497E-1,4.828207379E0
1.108344292E0,-4.176711164E0,1.631963736E0,9.746299848E-1,4.588913313E0
1.118301292E0,-6.574285344E0,1.543314684E0,1.851278177E0,7.002162443E0
1.128258292E0,-7.423550733E0,1.542628806E0,1.234551584E0,7.681987160E0
1.138215292E0,-7.841469362E0,2.122769077E0,5.191134667E-1,8.140286795E0
1.148173292E0,-7.007868664E0,2.222375227E0,-1.271775252E-1,7.352914319E0
1.158130292E0,-5.606193423E0,2.134538938E0,-9.473454148E-2,5.999552967E0
1.168087292E0,-4.965830339E0,1.578255891E0,2.963842517E-1,5.219023494E0
1.178044292E0,-4.101311318E0,8.807620007E-1,5.459244123E-1,4.230192631E0
1.188001292E0,-3.315589376E0,1.142959337E0,9.328557220E-1,3.629009335E0
1.197959292E0,-3.479494432E0,2.209023694E0,6.615346831E-1,4.174241886E0
1.207916292E0,-3.246917337E0,2.801805646E0,7.514821091E-1,4.353999590E0
1.217873292E0,-2.805843149E0,2.280683076E0,1.102249267E0,3.780109062E0
1.227830292E0,-2.203479949E0,1.567302886E0,1.188936870E0,2.953867483E0
1.237788292E0,-1.790060168E0,1.470295824E0,1.655752840E0,2.847385236E0
1.247745292E0,2.456473768E-1,1.122264286E0,1.871946915E0,2.196361768E0
1.257702292E0,2.937941106E0,7.772072268E-1,1.465337386E0,3.373835009E0
1.267659292E0,2.740379477E0,1.052062030E0,4.334190130E-1,2.967215232E0
1.277616292E0,1.967520824E0,1.591256590E0,-6.758919364E-1,2.619172701E0
1.287574292E0,1.140450296E0,1.871406632E0,-1.753050801E0,2.806417070E0
1.297531292E0,9.110663652E-2,1.656841300E0,-2.352374326E0,2.878730359E0
1.307488292E0,-9.372905427E-1,1.190940419E0,-2.075062522E0,2.569579170E0
1.317445292E0,-1.168465476E0,-5.228112459E-2,-2.315441850E-1,1.192332837E0
1.327403292E0,-2.203421477E0,-2.033901340E0,2.426239862E0,3.857260781E0
1.337360292E0,-7.539347237E-1,-2.393998607E0,6.653144403E0,7.110835207E0
1.347317292E0,2.375292780E0,-1.397958750E0,7.923377743E0,8.389053541E0
1.357274292E0,3.456910146E0,-1.282887885E0,4.912133018E0,6.142074558E0
1.367231292E0,1.828491578E0,-9.252850395E-1,-2.982596000E-1,2.070867606E0
1.377189292E0,1.441840934E0,4.913198966E-1,-1.641823457E0,2.239617107E0
1.387146292E0,2.946008509E-1,-5.663437665E-2,-9.088283435E-2,3.134594130E-1
1.397103292E0,-2.719744653E-1,-9.694034511E-1,9.382552602E-1,1.376239839E0
1.407060292E0,5.634663516E-1,-1.102267393E0,1.175815865E0,1.707346094E0
1.417018292E0,1.757352598E0,-1.308986932E0,1.616982000E0,2.723300521E0
1.426975292E0,2.481332036E0,-1.823163010E0,1.379049293E0,3.373827053E0
1.436932292E0,7.863364846E-1,-2.423556283E0,1.258141299E0,2.841631512E0
1.446889292E0,-3.203089532E0,-3.118208426E0,1.589503595E0,4.744420724E0
1.456846292E0,-4.768056455E0,-2.805984067E0,2.747469226E0,6.177094470E0
1.466804292E0,-3.317231274E0,-9.740525723E-1,4.264283159E0,5.489709701E0
1.476761292E0,-1.935383357E0,7.695245701E-1,5.169811041E0,5.573582601E0
1.486718292E0,-9.880367732E-1,2.353098503E0,6.654641290E0,7.127239292E0
1.496675292E0,-1.064037128E0,1.981842994E0,5.807234731E0,6.227668254E0
1.506633292E0,-1.013545836E0,1.731856983E0,4.392526631E0,4.829171148E0
1.516590292E0,-1.441928058E0,1.851137844E0,2.983108508E0,3.795366150E0
1.526547292E0,4.156206733E-1,2.062182568E0,-1.847217432E0,2.799562417E0
1.536504292E0,1.684233751E0,2.829367082E0,-8.766791239E0,9.364752535E0
1.546461292E0,4.318958133E-1,3.998313199E0,-1.038906380E1,1.114027329E1
1.556419292E0,-3.895075929E-1,4.214563115E0,-6.666529849E0,7.896637173E0
1.566376292E0,-7.938881636E-2,2.684528627E0,-3.794238356E0,4.648574108E0
1.576333292E0,1.275360764E0,5.105888110E-1,-2.524552315E0,2.874127764E0
1.586290292E0,1.791556470E0,-2.831175041E-1,1.909326410E-1,1.823810676E0
1.596248292E0,1.678950207E0,1.846802133E-1,2.387701156E0,2.924738858E0
1.606205292E0,2.598840605E0,2.465449244E-1,1.181783679E0,2.865548735E0
1.616162292E0,2.984470909E0,6.981575489E-4,-1.070056837E0,3.170502914E0
1.626119292E0,2.750663559E0,-4.187863559E-1,-3.794252390E-1,2.808112452E0
1.636076292E0,3.113908383E0,-1.806532944E0,8.889619897E-1,3.708131621E0
1.646034292E0,3.189297704E0,-2.641612403E0,8.226212351E-1,4.222137093E0
1.655991292E0,2.763119298E0,-3.262648686E0,7.072585939E-1,4.333580439E0
1.665948292E0,1.146693953E0,-2.818168495E0,1.025392587E-1,3.044256065E0
1.675905292E0,-1.196661919E-1,-2.426126719E0,-3.041875072E-1,2.448048384E0
1.685863292E0,5.507194215E-1,-2.148426660E0,4.284358697E-1,2.258890499E0
1.695820292E0,1.392417344E0,-1.485295687E0,1.912216689E0,2.793116897E0
1.705777292E0,1.292908258E0,-1.182406408E0,2.250428267E0,2.852038580E0
1.715734292E0,9.513010561E-2,-1.189448209E0,9.960316712E-1,1.554321675E0
1.725691292E0,-1.550426652E0,-6.983996236E-1,-6.780863965E-1,1.830679109E0
1.735649292E0,-2.769659409E0,8.348888397E-2,-1.248878432E0,3.039355355E0
1.745606292E0,-3.253521767E0,4.095483398E-1,-9.961440839E-1,3.427161619E0
1.755563292E0,-3.577577382E0,9.241518492E-1,-7.515733257E-1,3.770673551E0
1.765520292E0,-4.502827338E0,1.290722569E0,-3.793518564E-1,4.699502805E0
1.775478292E0,-5.355409268E0,1.490152969E0,-2.520398453E-1,5.564574411E0
1.785435292E0,-4.069667357E0,1.057931466E0,-1.886215290E-1,4.209155433E0
1.795392292E0,-1.839515333E0,-5.539769053E-2,4.744249517E-1,1.900516930E0
1.805349292E0,-1.270257899E0,7.352172017E-2,1.779377890E0,2.187497714E0
1.815307292E0,-1.547637531E0,-1.462499732E-1,2.796723247E0,3.199723722E0
1.825264292E0,-1.812917519E0,-1.049981591E0,3.213630307E0,3.836215716E0
1.835221292E0,-2.531202938E0,-7.556970745E-1,2.406402745E0,3.573351445E0
1.845178292E0,-2.601271293E0,-6.965086341E-1,1.063822974E0,2.895419820E0
1.855135292E0,-1.229891646E0,-6.348497450E-2,4.995350884E-1,1.328984239E0
1.865093292E0,-8.223184955E-1,1.493327422E0,-1.582209924E0,2.325859570E0
1.875050292E0,-1.197215651E0,2.548597820E0,-1.448235157E0,3.166395621E0
1.885007292E0,-1.191735055E0,4.444622399E0,2.477833647E-1,4.608285724E0
1.894964292E0,-2.575068165E0,4.979903417E0,-1.024395345E0,5.699105186E0
1.904922292E0,-2.973423765E0,3.703991261E0,-6.076397270E-1,4.788530691E0
1.914879292E0,-1.003284557E0,2.323402249E0,6.912628046E-1,2.623475210E0
1.924836292E0,3.733271778E-1,2.444295772E0,2.017415115E0,3.191225274E0
1.934793292E0,9.505409181E-1,2.922322024E0,2.027877538E0,3.681817670E0
1.944751292E0,1.555540043E0,3.119157429E0,2.340652120E-1,3.493370065E0
1.954708292E0,-3.010308001E0,6.467233350E0,-7.361349222E-1,7.171398475E0
1.964665292E0,-1.036959842E0,3.308421859E0,-3.461198202E0,4.899064595E0
1.974622292E0,1.022792623E1,-6.908046752E-1,2.612381002E0,1.057885724E1
1.984580292E0,6.123817019E0,5.993578477E0,6.040809946E0,1.048405945E1
1.994537292E0,7.517532445E0,1.242326919E0,5.191887789E0,9.220215239E0
2.004494292E0,7.113579891E0,1.774440501E0,5.768713274E0,9.328971583E0
2.014451292E0,2.815140222E0,1.834288507E0,3.125182692E0,4.588724840E0
2.024408292E0,1.001078403E0,9.415356213E-1,-7.679750580E-1,1.574303968E0
2.034366292E0,2.528090465E-1,8.107240516E-1,-1.006924449E0,1.317225398E0
2.044323292E0,-1.074556269E0,-1.359612125E-1,3.739589694E-1,1.145862966E0
2.054279792E0,3.646715444E-1,-9.163867468E-1,7.362366638E-1,1.230769853E0
2.064236792E0,2.930557827E0,-4.087531185E-1,7.228345531E-1,3.045937964E0
2.074194792E0,5.651908125E0,-6.804901868E-1,2.395629834E0,6.176258952E0
2.084151792E0,5.589258717E0,-2.558173220E0,3.701136650E0,7.175128970E0
2.094108792E0,2.191069819E0,-4.845284725E0,3.368736181E0,6.294914970E0
2.104065792E0,-1.338601325E0,-6.857766545E0,1.676508117E0,7.185505894E0
2.114022792E0,-4.562502267E0,-7.508658711E0,-2.265945900E0,9.073637275E0
2.123980792E0,-5.099863139E0,-6.829081274E0,-4.928069020E0,9.845345060E0
2.133937792E0,-5.278974465E0,-4.491056308E0,-4.125106855E0,8.065585206E0
2.143894792E0,-7.507586331E0,-1.069444048E-1,-2.532132061E0,7.923823723E0
2.153851792E0,-6.672536693E0,2.449046634E0,-1.753107519E0,7.320789665E0
2.163809792E0,-6.167243121E0,3.506579905E0,-6.161352197E-1,7.121138459E0
2.173766792E0,-6.537830293E0,2.741151309E0,-2.529400972E-1,7.093737670E0
2.183723792E0,-6.864599601E0,2.838420326E0,8.378878766E-1,7.475387196E0
2.193680792E0,-6.852567201E0,1.773778011E0,2.189067732E0,7.409182358E0
2.203638792E0,-6.432731854E0,-8.557710010E-1,2.149245855E0,6.836054480E0
2.213595792E0,-5.882756199E0,-4.308163004E0,2.186627104E0,7.612386423E0
2.223552792E0,-4.173546066E0,-1.066455653E1,7.203057493E0,1.352905355E1
2.233509792E0,-1.738083683E0,-2.153305927E1,1.199922561E1,2.471183910E1
2.243466792E0,-1.073464009E-1,-2.667147077E1,1.179926603E1,2.916507423E1
2.253424792E0,-5.066945654E-1,-1.887163358E1,7.134399487E0,2.018154973E1
2.263381792E0,-2.026405209E0,-7.623495687E0,1.384922383E0,8.008870992E0
2.273338792E0,-1.464444808E0,-4.331827855E-1,-3.742915006E0,4.042481745E0
2.283295792E0,-9.400290862E-1,3.143918048E0,-7.211282771E0,7.922781998E0
2.293253792E0,-6.806264269E-1,3.939768537E0,-8.537527760E0,9.427322458E0
2.303210792E0,1.343818796E-1,3.764944975E0,-4.772789776E0,6.080492694E0
2.313167792E0,1.556588741E-1,3.396290892E0,6.894586462E-1,3.469059633E0
2.323124792E0,4.101115729E-1,2.518793977E0,3.182848225E0,4.079587899E0
2.333082792E0,2.564167786E-1,3.142742173E0,2.070334610E0,3.772116558E0
2.343039792E0,5.315145341E-1,3.270320233E0,-7.222878385E-1,3.391047308E0
2.352996792E0,1.730613427E0,1.203588531E0,-7.668664259E-1,2.243152313E0
2.362953792E0,3.849487820E0,-6.086284912E-1,2.423926411E0,4.589597408E0
2.372911792E0,3.116556295E0,5.438384181E-1,2.124001086E0,3.810520171E0
2.382868792E0,1.933994498E0,1.244610257E0,5.612098380E-1,2.367349972E0
2.392825792E0,1.673881255E0,1.463669175E0,-4.216281758E-1,2.263178347E0
2.402782792E0,1.768482188E0,1.605857087E0,-1.573765668E-1,2.393966085E0
2.412739792E0,1.811087340E0,1.758580513E0,4.265725813E-1,2.560196661E0
2.422697792E0,1.520319047E0,1.573605600E0,5.471484904E-1,2.255432566E0
2.432654792E0,1.076400627E0,1.502485331E0,1.011185315E0,2.106797623E0
2.442611792E0,9.487436302E-1,1.402960458E0,1.390470221E0,2.191305538E0
2.452568792E0,7.600145124E-1,1.412697827E0,1.543471389E0,2.226126937E0
2.462526792E0,1.484032103E-1,1.879857613E0,1.831937926E0,2.629046353E0
2.472483792E0,-7.305199141E-1,2.026980575E0,2.337242024E0,3.178837818E0
2.482440792E0,-1.123413337E0,1.951643879E0,2.557476817E0,3.407588447E0
2.492397792E0,-1.294198739E0,1.153559754E0,3.154454731E0,3.599477063E0
2.502355792E0,-1.836719487E0,2.543872100E-1,3.380970018E0,3.856061409E0
2.512312792E0,-1.926453490E0,6.565434998E-1,3.145079890E0,3.746171369E0
2.522269792E0,-2.111770757E0,1.788964400E0,2.281189445E0,3.586613255E0
2.532226792E0,-2.095468281E0,1.825653924E0,2.011104215E0,3.430530532E0
2.542184792E0,-1.837926499E0,1.473644525E0,1.700075027E0,2.905143215E0
2.552141792E0,-1.981787153E0,1.119961653E0,1.193397419E0,2.570212408E0
2.562098792E0,-2.566670979E0,8.827021068E-1,8.660527450E-1,2.849036728E0
2.572055792E0,-2.736190239E0,-3.726149869E-1,1.502443231E0,3.143710326E0
2.582013792E0,-2.404452698E0,-1.508720217E0,2.185760547E0,3.582621755E0
2.591970792E0,-1.516057450E0,-2.672606739E0,3.942186946E0,4.998209168E0
2.601927792E0,-4.396648626E-1,-3.388049242E0,3.990251058E0,5.253026401E0
2.611884792E0,-4.363155775E-1,-2.098262812E0,4.814218469E0,5.269703746E0
2.621841792E0,1.562917621E0,-5.212868768E-1,5.203726062E0,5.458316262E0
2.631799792E0,2.308121574E0,-1.458092101E0,4.126758401E0,4.948089801E0
2.641756792E0,1.958568152E0,-2.206486003E0,3.960417979E0,4.938570670E0
2.651713792E0,1.708296359E0,-2.101087602E0,4.936817039E0,5.630720028E0
2.661670792E0,1.926834290E0,-9.975355750E-1,5.109815100E0,5.551394236E0
2.671628792E0,1.702728201E0,8.987673318E-1,4.866784937E0,5.233799927E0
2.681585792E0,1.888459890E0,1.914578379E0,4.905076599E0,5.593895563E0
2.691542792E0,2.494384190E0,2.045823228E0,4.612225235E0,5.628495961E0
2.701499792E0,3.114182325E0,1.957234402E0,3.645375262E0,5.178576915E0
2.711457792E0,3.422811524E0,1.745752307E0,2.753041037E0,4.726788000E0
2.721414792E0,3.218075653E0,1.570452197E0,1.513282215E0,3.887461135E0
2.731371792E0,2.436691322E0,1.640936288E0,4.939709876E-1,2.978950123E0
2.741328792E0,1.246689966E0,1.856241294E0,5.057151568E-1,2.292512907E0
2.751286792E0,6.292978138E-2,1.766537404E0,9.711570311E-1,2.016868993E0
2.761243792E0,-6.639294103E-1,9.172258222E-1,1.406200401E0,1.805409936E0
2.771200792E0,-1.644655264E0,-1.396344334E-1,2.090344512E0,2.663443052E0
2.781157792E0,-2.684693226E0,-9.197062111E-1,2.826215433E0,4.005113095E0
2.791115792E0,-3.616325710E0,-1.720851939E0,3.226211761E0,5.142721591E0
2.801072792E0,-3.573371480E0,-2.646087862E0,3.581431866E0,5.709414936E0
2.811029792E0,-2.939304677E0,-3.839134448E0,4.074688361E0,6.323096593E0
2.820986792E0,-2.548944852E0,-4.698860505E0,4.330328629E0,6.879546202E0
2.830943792E0,-2.524152658E0,-4.936964389E0,3.423467581E0,6.516524710E0
2.840901792E0,-1.579849257E0,-4.896166027E0,2.566290325E0,5.749279213E0
2.850858792E0,-1.562349710E-1,-5.170569425E0,1.643271081E0,5.427664083E0
2.860815792E0,6.656379667E-1,-4.203426508E0,2.752152845E-2,4.255893061E0
2.870772792E0,3.514889967E-1,-2.372641068E0,-1.397424753E0,2.775926168E0
2.880730792E0,-3.795179173E-1,-5.955424225E-1,-2.399706659E0,2.501458910E0
2.890687792E0,-1.028377591E0,1.013918889E-1,-2.758576012E0,2.945773650E0
2.900644792E0,-1.525736200E0,-3.221459144E-1,-2.257921035E0,2.744058371E0
2.910601792E0,-1.780359052E0,-1.205863098E0,-1.487120603E0,2.614442934E0
2.920559792E0,-2.334581541E0,-1.868232763E0,-9.017669535E-1,3.123099145E0
2.930516792E0,-2.694862411E0,-2.000448250E0,-6.672611538E-1,3.421887500E0
2.940473792E0,-2.238835139E0,-8.123776442E-1,-8.200833973E-1,2.518903927E0
2.950430792E0,-1.265362025E0,2.838963532E-1,-1.467377187E0,1.958298752E0
2.960388792E0,-1.176130006E0,7.121926206E-1,-1.791123923E0,2.258013513E0
2.970345792E0,-2.336148595E0,1.088083218E0,-1.088625401E0,2.797609803E0
2.980302792E0,-4.066601077E0,1.414822705E0,2.501088023E-2,4.305762783E0
2.990259792E0,-5.019812418E0,1.544331515E0,1.108875040E0,5.367781702E0
3.000217792E0,-4.875249951E0,1.370665117E0,1.860484326E0,5.395200356E0
3.010174792E0,-4.733147993E0,1.198114368E0,1.201913888E0,5.028196989E0
3.020131792E0,-5.232480329E0,1.383869884E0,-1.510639858E-1,5.414495967E0
3.030088792E0,-5.026063676E0,1.271175327E0,-6.581965077E-1,5.225937757E0
3.040046792E0,-4.573486261E0,6.008031625E-1,-1.360133989E0,4.809127311E0
3.050004167E0,-4.089280087E0,1.369043684E-1,-1.882153522E0,4.503715835E0
3.059961167E0,-3.502619001E0,-4.438270569E-2,-1.823801818E0,3.949248379E0
3.069918167E0,-2.812539965E0,-9.363497257E-2,-1.824993481E0,3.354064664E0
3.079876167E0,-1.468494882E0,-2.185806155E-1,-2.305358619E0,2.742067298E0
3.089833167E0,-7.915141940E-2,-3.450827873E-1,-2.768865357E0,2.791408684E0
3.099790167E0,1.123978105E0,-8.167098463E-2,-2.975213890E0,3.181492515E0
3.109747167E0,2.493087278E0,5.130341166E-1,-2.783766109E0,3.772007679E0
3.119705167E0,3.952972135E0,1.878085907E0,-1.511332461E0,4.630045484E0
3.129662167E0,5.813697073E0,2.946765724E0,1.392616149E0,6.664974241E0
3.139619167E0,6.192284406E0,3.681007610E0,3.819570249E0,8.153730439E0
3.149576167E0,4.374000313E0,3.990421797E0,5.941783841E0,8.388095139E0
3.159533167E0,1.571075510E0,2.772576585E0,7.502651866E0,8.151395230E0
3.169491167E0,-1.764071633E0,8.080056810E-1,7.786428351E0,8.024542877E0
3.179448167E0,-4.222431128E0,-2.663991451E-1,7.681118828E0,8.769234835E0
3.189405167E0,-4.388996667E0,6.722777724E-2,5.983684988E0,7.421071173E0
3.199362167E0,-3.180636224E0,-8.254105031E-2,2.871255366E0,4.285716648E0
3.209320167E0,-1.117599378E0,-6.751651275E-1,-4.362853181E-1,1.376670330E0
3.219277167E0,1.306705348E0,1.732296109E-1,-2.193867127E0,2.559402340E0
3.229234167E0,2.512080789E0,1.613770709E0,-2.748928691E0,4.058499074E0
3.239191167E0,1.941836929E0,1.953676372E0,-3.301066062E0,4.299374277E0
3.249149167E0,3.157166669E0,1.061076098E0,-4.492032793E0,5.592132194E0
3.259106167E0,4.908158081E0,-3.542304638E0,1.572103743E0,6.253754718E0
3.269063167E0,5.032018481E0,-6.997738363E0,6.657890003E0,1.089114555E1
3.279020167E0,3.216806515E0,-9.194659490E0,4.197611159E0,1.060705175E1
3.288978167E0,2.468340692E0,-1.066452262E1,2.835494964E0,1.130773099E1
3.298935167E0,2.024458086E0,-1.086675559E1,-3.979039022E-1,1.106088311E1
3.308892167E0,-8.322037983E-1,-8.346082903E0,-5.368923352E0,9.958664617E0
3.318849167E0,-5.627587216E0,-5.454907243E0,-5.714455206E0,9.699523143E0
3.328807167E0,-8.659309475E0,-2.892827498E0,-2.607905251E0,9.494907125E0
3.338764167E0,-8.827917446E0,-5.671512669E-1,-5.798137048E-1,8.865098473E0
3.348721167E0,-6.499702939E0,-3.440449065E-1,-7.300359839E-1,6.549615082E0
3.358678167E0,-3.686671808E0,-1.563432029E0,-1.559544801E0,4.297446767E0
3.368636167E0,-2.329869854E0,-2.947722328E0,-1.125171522E0,3.922164124E0
3.378593167E0,-2.320300886E0,-3.600900171E0,3.504514083E-2,4.283865825E0
3.388550167E0,-2.734932795E0,-3.581048874E0,5.195438218E-1,4.535823433E0
3.398507167E0,-2.872444105E0,-3.337237523E0,6.809319440E-1,4.455531139E0
3.408465167E0,-3.262779663E0,-3.014903913E0,1.053224895E0,4.565595187E0
3.418422167E0,-3.411886586E0,-3.250253758E0,1.529749582E0,4.954316638E0
3.428379167E0,-3.682558876E0,-3.304575561E0,1.089150188E0,5.066330787E0
3.438336167E0,-4.992718760E0,-3.269440811E0,3.526748121E-1,5.978366278E0
3.448294167E0,-5.369326226E0,-3.040193120E0,1.479150848E0,6.345102486E0
3.458251167E0,-5.672841741E0,-3.172165362E0,1.495165641E0,6.669279331E0
3.468208167E0,-6.093496283E0,-3.885337391E0,-1.678062745E0,7.419059116E0
3.478165167E0,-5.255058183E0,-4.383929470E0,-3.597258525E0,7.731412743E0
3.488123167E0,-5.670591733E0,-2.960090944E0,-8.454395556E-1,6.452326483E0
3.498080167E0,-4.503618466E0,-1.279874815E0,8.906291771E-1,4.765908010E0
3.508037167E0,-1.964658320E0,3.030968553E-1,9.478843819E-1,2.202324867E0
3.517994167E0,-9.217632616E-1,1.643499123E0,6.162757722E-1,1.982557113E0
3.527952167E0,-2.528087541E-1,2.165673607E0,2.229980408E-1,2.191753308E0
3.537909167E0,1.431603044E-1,2.724241161E0,5.295985477E-1,2.778931341E0
3.547866167E0,6.630888730E-1,3.488912542E0,9.691062663E-1,3.681217806E0
3.557823167E0,8.721136764E-1,4.207466349E0,1.181988039E0,4.456506599E0
3.567781167E0,1.036730923E0,4.985032595E0,1.080768789E0,5.205134211E0
3.577738167E0,1.333858064E0,5.634090489E0,9.070673083E-1,5.860454255E0
3.587695167E0,1.940470727E0,6.100486044E0,4.488438217E-1,6.417383999E0
3.597652167E0,2.669804461E0,6.618886151E0,-6.801022241E-1,7.169382733E0
3.607610167E0,2.759225345E0,6.706715423E0,-1.625376847E0,7.432039166E0
3.617567167E0,2.238900043E0,6.241208645E0,-1.306705495E0,6.758168243E0
3.627524167E0,1.587283992E0,5.513076514E0,1.823155993E-1,5.739923527E0
3.637481167E0,8.822208810E-1,4.454447476E0,1.705997526E0,4.850860084E0
3.647439167E0,2.156125689E-1,2.998093168E0,2.064573494E0,3.646575809E0
3.657396167E0,3.749234676E-2,1.771212838E0,1.453384507E0,2.291490152E0
3.667353167E0,1.989120439E-1,1.521956559E0,8.782196313E-1,1.768385561E0
3.677310167E0,-5.653935939E-2,1.824837068E0,7.333620264E-1,1.967497620E0
3.687268167E0,-7.281566888E-1,1.778998405E0,1.309104461E0,2.325683121E0
3.697225167E0,-1.672307185E0,1.430656965E0,1.896918619E0,2.905458814E0
3.707182167E0,-2.844396473E0,1.013804283E0,2.193666860E0,3.732367172E0
3.717139167E0,-3.557596569E0,7.920287490E-1,2.531452614E0,4.437573123E0
3.727097167E0,-3.632771004E0,9.105541492E-1,2.657979929E0,4.592492932E0
3.737054167E0,-3.325123261E0,1.308967636E0,2.393921424E0,4.301244094E0
3.747011167E0,-2.851323962E0,1.808970648E0,1.998716304E0,3.923938074E0
3.756968167E0,-2.369852823E0,2.192936835E0,1.585774094E0,3.597200834E0
3.766926167E0,-1.597986150E0,2.287309141E0,1.374298577E0,3.110311789E0
3.776883167E0,-8.672011381E-1,2.226126800E0,1.450977209E0,2.795176775E0
3.786840167E0,-5.863283801E-1,1.971834315E0,1.555166405E0,2.578847433E0
3.796797167E0,-3.710742456E-1,1.492326379E0,1.695931690E0,2.289305225E0
3.806755167E0,-1.442572421E-1,7.423665923E-1,1.712782635E0,1.872309447E0
3.816712167E0,-2.094115967E-1,4.139559710E-1,1.557954358E0,1.625556687E0
3.826669167E0,-5.798958582E-1,1.018865048E0,1.316258676E0,1.762640659E0
3.836626167E0,-9.684684813E-1,2.003510436E0,9.517910528E-1,2.420308137E0
3.846584167E0,-1.152949305E0,2.615830860E0,7.904593563E-1,2.965921304E0
3.856541167E0,-1.144164448E0,2.766644000E0,1.025102419E0,3.164532552E0
3.866498167E0,-1.218647450E0,2.987368205E0,1.510469120E0,3.562441208E0
3.876455167E0,-1.279889433E0,3.433828847E0,2.058980486E0,4.203415059E0
3.886413167E0,-1.199181485E0,3.898246874E0,2.741037873E0,4.914026205E0
3.896370167E0,-8.927376831E-1,4.203644024E0,4.100557027E0,5.939879762E0
3.906327167E0,3.562515539E-1,4.235769212E0,7.311315767E0,8.457185952E0
3.916284167E0,2.320259371E0,3.772766796E0,9.682245939E0,1.064721838E1
3.926242167E0,3.750743258E0,2.258884656E0,9.725018322E0,1.066520587E1
3.936199167E0,4.744391019E0,-3.929685599E-1,6.933694979E0,8.410695363E0
3.946156167E0,5.744568366E0,-2.631193834E0,3.811942556E0,7.379305710E0
3.956113167E0,2.134820774E0,-5.568377141E0,1.354032712E0,6.115364936E0
3.966071167E0,-4.639093190E-1,-1.141893740E1,2.979259578E0,1.181030613E1
3.976028167E0,1.579641096E0,-1.884272261E1,3.532435123E0,1.923594446E1
3.985985167E0,4.226524764E0,-2.562377602E1,-3.358147750E0,2.618622855E1
3.995942167E0,7.470381668E0,-2.267002931E1,-1.101531229E1,2.628828514E1
4.005900167E0,9.071249911E0,-1.370649329E1,-5.239840804E0,1.725141922E1
4.015857167E0,6.662772428E0,-7.751955507E0,-4.010895238E0,1.098055696E1
4.025814167E0,4.581989282E0,-4.202819567E0,-2.989820527E0,6.899082901E0
4.035771167E0,3.941723261E0,-1.951822219E0,-3.376427316E0,5.545002585E0
4.045729167E0,1.420323181E0,-2.351374159E0,-3.788146142E0,4.679351405E0
4.055686583E0,-8.417908931E-1,-4.153495379E0,-2.689667160E0,5.019406858E0
4.065643583E0,-2.347440153E0,-4.859608065E0,-2.300106065E0,5.866579389E0
4.075600583E0,-3.243209617E0,-4.351851060E0,-2.194028510E0,5.854124817E0
4.085558583E0,-3.804362810E0,-2.513669477E0,-2.257645047E0,5.088091173E0
4.095515583E0,-3.903837397E0,-4.050570935E-1,-1.882801686E0,4.353040301E0
4.105472583E0,-2.992862248E0,6.301135004E-2,-9.597450203E-1,3.143613426E0
4.115429583E0,-1.666657020E0,-2.971397120E-1,-9.406690639E-1,1.936722985E0
4.125387583E0,-1.751528771E0,3.051252544E-2,-2.832255022E0,3.330233109E0
4.135344583E0,-1.329822900E0,3.163027918E-1,-6.948555093E0,7.081729611E0
4.145301583E0,-5.540616900E-1,1.109675231E0,-6.274202728E0,6.395622202E0
4.155258583E0,-2.435053663E0,2.970184992E0,-2.405280225E0,4.531761047E0
4.165216583E0,-4.586981050E0,4.112577733E0,-1.198976247E0,6.276243686E0
4.175173583E0,-5.237339950E0,5.113261449E0,2.002539799E-1,7.322245152E0
4.185130583E0,-5.080339286E0,6.230323468E0,5.240280515E-1,8.056139471E0
4.195087583E0,-5.244886951E0,6.896321331E0,-1.423069033E-1,8.665352750E0
4.205045583E0,-5.459982626E0,7.116048000E0,-7.108992165E-1,8.997495603E0
4.215002583E0,-5.187060328E0,7.008619446E0,-7.159705067E-1,8.748654476E0
4.224959583E0,-4.973717063E0,6.678872151E0,-8.466025668E-1,8.370300505E0
4.234916583E0,-4.698139544E0,6.139186426E0,-1.685074580E0,7.912117383E0
4.244874583E0,-3.949297745E0,5.389753473E0,-2.619041566E0,7.176752323E0
4.254831583E0,-3.294791999E0,4.633285151E0,-2.941669291E0,6.401281421E0
4.264788583E0,-2.273241910E0,3.889425765E0,-3.271759817E0,5.567735074E0
4.274745583E0,-3.677027410E-1,2.868732292E0,-3.385082949E0,4.452372047E0
4.284703583E0,1.853253951E0,1.719715825E0,-2.043997288E0,3.251137899E0
4.294660583E0,3.242079935E0,8.888995707E-1,2.232746141E-1,3.369135840E0
4.304617583E0,4.136320937E0,3.418112701E-1,2.121689535E0,4.661282262E0
4.314574583E0,4.955802364E0,1.340520966E-1,2.332522590E0,5.478924043E0
4.324532583E0,4.823787437E0,1.216751783E0,2.407922874E-1,4.980701865E0
4.334489583E0,4.393448153E0,4.378316728E0,-2.639368241E0,6.740794371E0
4.344446583E0,2.255155302E0,7.709932737E0,-3.949449772E0,8.951365357E0
4.354403583E0,-3.326543258E0,1.307268201E1,-5.878677181E0,1.471461010E1
4.364361583E0,-6.431385241E0,1.348855236E1,-6.587364981E0,1.633086459E1
4.374318583E0,-6.690900459E0,8.123525012E0,-7.643152857E0,1.300682871E1
4.384275583E0,-1.087923589E1,4.534792312E0,2.529303762E0,1.205485348E1
4.394233583E0,-7.808398679E0,-7.117108101E-1,6.395006788E0,1.011799061E1
4.404190583E0,8.550851226E-2,-6.110112900E0,5.576054535E0,8.272434680E0
4.414147583E0,1.539060250E0,-9.051931880E0,8.849670258E0,1.275236609E1
4.424104583E0,2.402478240E0,-8.345080690E0,1.693707410E1,1.903356909E1
4.434062583E0,1.084139856E0,-1.038135951E1,3.372581836E1,3.530409054E1
4.444019583E0,1.542777910E1,-1.954513576E1,2.062930427E1,3.233569072E1
4.453976583E0,2.192089105E1,-1.360071716E1,-1.372836305E1,2.922281513E1
4.463933583E0,7.108882238E0,-1.171408964E0,-1.958287720E1,2.086618041E1
4.473891583E0,-4.783268571E0,2.143802097E0,-1.613885314E1,1.696873968E1
4.483848583E0,-6.860022985E0,2.290529788E0,-7.295137106E0,1.027255895E1
4.493805583E0,-7.696657219E0,2.157158892E0,-2.610270157E-1,7.997499730E0
4.503762583E0,-7.724646671E0,2.310726655E0,3.262153134E0,8.697773677E0
4.513720583E0,-7.086253513E0,1.384400811E0,4.678617737E0,8.603546849E0
4.523677583E0,-4.164737821E0,-2.052996592E0,5.010403664E0,6.831103937E0
4.533634583E0,5.170827287E-1,-6.313440469E0,7.389554436E0,9.733058094E0
4.543591583E0,2.540586550E0,-8.349476042E0,6.342253793E0,1.078853620E1
4.553549583E0,1.136950153E0,-3.803828959E0,4.646160135E0,6.111348002E0
4.563506583E0,5.322252631E-2,4.409905726E-1,4.232016469E0,4.255263648E0
4.573463583E0,-6.936815053E-1,2.911883574E0,4.009761463E0,5.003843220E0
4.583420583E0,-4.268525898E-1,4.631809314E0,4.191065786E0,6.261061657E0
4.593378583E0,1.427642725E0,5.875926651E0,4.480160022E0,7.525723326E0
4.603335583E0,2.712310503E0,8.456433311E0,5.006453869E0,1.019472770E1
4.613292583E0,4.208986625E0,1.042222921E1,1.878583943E0,1.139594260E1
4.623249583E0,3.094343015E0,1.327626452E1,-1.368697090E0,1.370063831E1
4.633207583E0,1.881521146E0,1.610388680E1,-6.446665184E0,1.744805960E1
4.643164583E0,3.424603111E0,1.351652427E1,-4.157899794E0,1.455034246E1
4.653121583E0,5.289871920E0,5.713589233E0,3.409928353E0,8.500321067E0
4.663078583E0,4.139006563E0,1.495574507E0,4.326479407E0,6.171429534E0
4.673036583E0,2.739367908E0,-1.789101225E0,-3.659577565E0,4.908923271E0
4.682993583E0,3.478409774E0,-9.158569890E0,-1.648373947E0,9.934579692E0
4.692950583E0,6.257731122E-1,-2.367882136E1,-1.378781052E0,2.372718293E1
4.702907583E0,1.105571655E0,-3.496081112E1,-4.712258230E0,3.529427688E1
4.712865583E0,2.254523803E0,-3.005863649E1,-2.264628376E0,3.022801759E1
4.722822583E0,3.548191615E0,-1.172567181E1,-3.265409156E0,1.267848335E1
4.732779583E0,7.440926903E-1,-4.779386605E0,-5.606508003E0,7.404670300E0
4.742736583E0,-9.730638081E-1,-5.766506535E0,-3.834004101E0,6.992784727E0
4.752694583E0,-1.906664173E0,-5.087493355E0,-7.858728004E-1,5.489585864E0
4.762651583E0,-2.008481154E0,-2.524100325E0,-3.390081149E-1,3.243455796E0
4.772608583E0,6.614276791E-1,-2.196810615E-1,-1.344063209E0,1.514018578E0
4.782566583E0,3.399854770E0,1.479128044E0,-2.544549208E0,4.496839212E0
4.792523583E0,4.248799732E0,2.422638854E0,-4.629711918E0,6.734664848E0
4.802480583E0,3.690789417E0,1.915210463E0,-3.314739776E0,5.317655256E0
4.812437583E0,1.478597116E0,1.227102524E0,-7.068582058E-1,2.047358923E0
4.822395583E0,-4.075216949E-1,1.151779277E0,7.887911457E-1,1.454256135E0
4.832352583E0,-1.391925008E0,1.371698905E0,1.055748700E0,2.221175011E0
4.842309583E0,-1.559038432E0,1.749226137E0,1.045278676E0,2.565735844E0
4.852266583E0,-1.208973232E0,1.706450831E0,6.535772073E-1,2.191062272E0
4.862224583E0,-7.063454050E-1,1.435062842E0,-5.770155197E-1,1.700375282E0
4.872181583E0,-7.283408761E-2,1.191812239E0,-2.545776538E0,2.811885382E0
4.882138583E0,1.935305589E-1,1.286385689E0,-3.939880804E0,4.149084594E0
4.892095583E0,-4.186606407E-4,2.168819409E0,-3.710640129E0,4.297979522E0
4.902053583E0,3.006041873E-1,3.124226965E0,-1.975344545E0,3.708523031E0
4.912010583E0,7.239022547E-1,5.319213833E0,-2.067885357E-1,5.372227822E0
4.921967583E0,-4.617236298E-1,1.149513948E1,1.048459999E0,1.155208591E1
4.931924583E0,-9.732088190E-1,1.640127735E1,9.224476197E0,1.884250502E1
4.941882583E0,-5.282762876E0,1.583671114E1,9.480787141E0,1.919881059E1
4.951839583E0,-1.244616572E1,1.244454955E1,-7.167021103E0,1.900368507E1
4.961796583E0,-1.127152792E1,8.431782035E0,-7.510742658E0,1.595473426E1
4.971753583E0,-7.167716337E0,6.615846768E0,-4.503914920E0,1.074387433E1
4.981711583E0,-4.007485726E0,7.652943435E0,-1.853411241E0,8.835305218E0
4.991668583E0,1.303717421E0,4.259592522E0,1.975491164E0,4.873025027E0
5.001625583E0,4.205481804E0,-2.348138895E0,6.720271608E0,8.268124573E0
5.011582583E0,6.772598341E0,-6.441506771E0,6.252442900E0,1.124518297E1
5.021540583E0,5.153245295E0,-4.854984087E0,-1.518681534E0,7.241077347E0
5.031497583E0,-9.415438074E-1,-2.025560871E0,-8.610346645E-1,2.393905236E0
5.041454583E0,-3.153733769E0,-7.489095681E0,4.061228070E0,9.084391243E0
5.051412667E0,-3.509045675E0,-9.926871808E0,1.053023430E1,1.489100466E1
5.061369667E0,7.820995921E-1,-7.838308942E0,1.675726637E1,1.851639120E1
5.071326667E0,1.019645652E1,-9.415332824E0,1.229405275E1,1.854076456E1
5.081283667E0,1.339137047E1,-7.254051061E0,1.424632578E0,1.529639297E1
5.091241667E0,9.237558172E0,9.533692163E-1,-1.515283951E1,1.777216754E1
5.101198667E0,2.702750305E0,3.759919878E0,-1.292613325E1,1.373050536E1
5.111155667E0,-2.204341829E-2,2.339928820E0,-5.502774889E0,5.979655866E0
5.121112667E0,-1.566853820E0,1.344299437E0,1.483839438E0,2.542430205E0
5.131070667E0,-3.109740488E0,1.658138797E0,3.790231844E0,5.175496846E0
5.141027667E0,-2.422896132E0,2.034480214E-1,2.773744274E0,3.688559890E0
5.150984667E0,-6.083910942E-1,-2.936396856E0,2.630069414E0,3.988712994E0
5.160941667E0,1.192249026E0,-6.452362711E0,2.817603361E0,7.140961490E0
5.170899667E0,2.738859200E-1,-6.852297644E0,2.373526921E0,7.256901993E0
5.180856667E0,-2.237143539E0,-3.915847578E0,1.859735590E0,4.878246604E0
5.190813667E0,-4.136676448E0,-1.105250058E0,1.553245449E0,4.554804184E0
5.200770667E0,-4.783042869E0,7.037504107E-1,1.757707524E0,5.144151968E0
5.210728667E0,-5.019815927E0,1.863194218E0,3.114138764E0,6.194183148E0
5.220685667E0,-4.781840681E0,2.729870861E0,5.477495037E0,7.766668984E0
5.230642667E0,-3.952760466E0,3.106243853E0,6.990875486E0,8.610772685E0
5.240599667E0,-3.385186445E0,3.734852280E0,6.968715708E0,8.600674824E0
5.250557667E0,-1.873813346E0,5.413047026E0,8.509103860E0,1.025753884E1
5.260514667E0,1.065498347E0,7.695693013E0,9.448579507E0,1.223252355E1
5.270471667E0,3.792953138E0,8.534117079E0,9.225973669E0,1.312768974E1
5.280429667E0,7.928059609E0,6.162889869E0,7.457072820E0,1.250772864E1
5.290386667E0,1.383267621E1,2.243080802E0,-3.008976005E0,1.433276942E1
5.300343667E0,1.297639591E1,-2.504983438E0,-1.234403241E1,1.808416238E1
5.310300667E0,8.715473151E0,-8.612380891E0,-8.485661788E0,1.490432933E1
5.320258667E0,8.254659348E0,-1.809588933E1,-2.242374926E1,2.997374088E1
5.330215667E0,9.418829459E0,-2.182676725E1,-1.767205390E1,2.962133701E1
5.340172667E0,8.911823237E-1,-1.302818120E1,-4.473931568E0,1.380375945E1
5.350129667E0,-2.455134171E0,-9.079915484E0,-3.521779742E0,1.004367869E1
5.360087667E0,-1.524950334E0,-8.809953046E0,-4.272618949E-1,8.951161875E0
5.370044667E0,-1.594602951E0,-7.780011032E0,1.213533475E0,8.033927665E0
5.380001667E0,-6.648108780E-1,-4.095582801E0,1.140912226E0,4.303190990E0
5.389958667E0,2.602983942E0,-5.848928887E-1,4.575805852E-1,2.706844119E0
5.399916667E0,4.325874220E0,-1.053667676E0,-2.323052001E-1,4.458404316E0
5.409873667E0,1.776557778E0,-2.535446847E0,-7.323716542E-1,3.181354506E0
5.419830667E0,5.629383481E-1,-2.646623467E0,-1.766898762E0,3.231632187E0
5.429787667E0,2.752676171E-1,-1.729452608E0,-4.390798779E0,4.727144223E0
5.439745667E0,9.911229336E-1,-9.605981290E-1,-7.821027496E0,7.941885452E0
5.449702667E0,6.648208183E-1,-2.920228136E-1,-5.739100635E0,5.784854375E0
5.459659667E0,-1.223832761E0,4.241903526E-1,-2.697636622E0,2.992481818E0
5.469616667E0,-2.964180486E0,1.423926235E0,-2.109698796E-1,3.295214738E0
5.479574667E0,-3.776166367E0,2.717041485E0,6.759410530E-1,4.700919396E0
5.489531667E0,-3.836583307E0,3.690452617E0,5.055362320E-1,5.347371212E0
5.499488667E0,-3.555121150E0,4.158118188E0,-1.385927519E-1,5.472480352E0
5.509446667E0,-3.079147856E0,4.357632787E0,-6.251699719E-1,5.372239060E0
5.519403667E0,-2.362300267E0,4.513876237E0,-9.628051606E-1,5.184837028E0
5.529360667E0,-1.732587301E0,4.774899452E0,-1.214980077E0,5.222805770E0
5.539317667E0,-1.602302565E0,4.975357207E0,-1.250232063E0,5.374442581E0
5.549275667E0,-1.703822508E0,5.263799770E0,-8.639021391E-1,5.599725535E0
5.559232667E0,-1.823187568E0,5.415547881E0,-5.984060964E-1,5.745455736E0
5.569189667E0,-1.539107612E0,5.433741492E0,-3.960203679E-1,5.661380660E0
5.579146667E0,-1.341484002E0,5.589407237E0,-6.193780124E-2,5.748468394E0
5.589104667E0,-1.292913521E0,5.695235408E0,1.844778997E-1,5.843061169E0
5.599061667E0,-7.632961160E-1,5.125762796E0,4.247389676E-1,5.199660412E0
5.609018667E0,-6.169900095E-1,4.161581494E0,4.600536650E-1,4.232149167E0
5.618975667E0,-1.290438395E0,3.524014547E0,5.764388381E-1,3.796866012E0
5.628933667E0,-1.336689286E0,3.196469899E0,7.391183178E-1,3.542661986E0
5.638890667E0,-4.820321792E-1,2.393003411E0,7.811030804E-1,2.562994805E0
5.648847667E0,2.710453427E-1,1.449408985E0,1.304740392E0,1.968908193E0
5.658804667E0,1.452071223E0,-7.780889869E-2,2.195284053E0,2.633218019E0
5.668762667E0,3.370818082E0,-1.993133383E0,2.992050655E0,4.928221012E0
5.678719667E0,4.360540608E0,-4.229094030E0,2.669421176E0,6.635160896E0
5.688676667E0,3.629025278E0,-6.615748535E0,-3.890456629E-1,7.555746798E0
5.698634667E0,4.920402735E-1,-7.837322516E0,-8.005020661E0,1.121365612E1
5.708591667E0,-2.286508657E0,-5.928224148E0,-8.770525271E0,1.083023901E1
5.718548667E0,-5.595416420E0,-4.446147938E0,2.520050544E0,7.578098122E0
5.728505667E0,-3.993452409E0,-3.182915468E0,6.662642620E0,8.394606584E0
5.738463667E0,4.708849304E0,-1.568543665E0,8.730933774E0,1.004304712E1
5.748420667E0,1.203205188E1,-3.068703559E0,1.437508615E1,1.899553410E1
5.758377667E0,1.364894968E1,-1.001606991E0,4.771392292E0,1.449355816E1
5.768334667E0,9.252895419E0,2.228308396E0,-7.888622478E0,1.236170686E1
5.778292667E0,2.009562305E0,-7.069792432E-1,-9.787724447E0,1.001687128E1
5.788249667E0,-3.033291067E0,-4.035051255E0,-8.276244344E0,9.694261899E0
5.798206667E0,-5.898952401E0,-7.703169848E0,-3.549464554E0,1.033127116E1
5.808163667E0,-5.740118051E0,-1.150539550E1,3.990456588E0,1.346279409E1
5.818121667E0,-3.097220430E0,-1.164422945E1,7.367760694E0,1.412319905E1
5.828078667E0,6.244165581E-1,-9.619022920E0,7.780071259E0,1.238729215E1
5.838035667E0,3.279581637E0,-7.771410947E0,5.829281073E0,1.025334100E1
5.847993667E0,3.951004547E0,-5.218762177E0,2.390029517E0,6.968368294E0
5.857950667E0,3.842482563E0,-2.085750940E0,-4.059294981E-1,4.390877815E0
5.867907667E0,2.760148328E0,4.482791269E-1,-1.836561905E0,3.345494373E0
5.877864667E0,1.625457539E0,1.929360725E0,-2.212280886E0,3.355403364E0
5.887822667E0,8.461844909E-1,3.088850141E0,-2.379568849E0,3.989908682E0
5.897779667E0,-1.291620702E-1,4.192829014E0,-2.582104120E0,4.925825785E0
5.907736667E0,-1.211393979E0,5.172460999E0,-2.544279651E0,5.890262058E0
5.917693667E0,-2.064557122E0,6.257731122E0,-2.124402205E0,6.923487534E0
5.927651667E0,-2.255174598E0,7.273293663E0,-1.331120105E0,7.730361822E0
5.937608667E0,-1.648682680E0,7.756610475E0,-4.047702876E-1,7.940214079E0
5.947565667E0,-5.191818792E-1,7.791011984E0,2.037250333E-1,7.810948818E0
5.957522667E0,4.341627789E-1,7.999129007E0,5.048953772E-1,8.026797713E0
5.967480667E0,4.061499381E-1,8.391561377E0,8.717572886E-1,8.446491632E0
5.977437667E0,-4.077403808E-1,8.274712958E0,1.480114177E0,8.415929226E0
5.987394667E0,-1.620283338E0,7.451445460E0,1.295139117E0,7.734774907E0
5.997351667E0,-2.605590046E0,6.305198818E0,8.625414920E-1,6.876671393E0
6.007309667E0,-2.295611018E0,4.684770470E0,1.807110064E0,5.521100532E0
6.017266667E0,-8.075858510E-1,3.229694363E0,3.069499365E0,4.528238834E0
6.027223667E0,1.231013727E0,2.336759044E0,3.928809686E0,4.734066241E0
6.037181667E0,2.797993262E0,1.671892033E0,3.902739290E0,5.084816932E0
6.047138667E0,2.476629120E0,1.645072024E0,2.925857250E0,4.171401972E0
6.057095042E0,1.110691477E0,2.212675281E0,1.618161968E0,2.957704449E0
6.067052042E0,-3.428994370E-1,2.776668466E0,8.496144676E-1,2.923920748E0
6.077010042E0,-1.287439358E0,3.403518636E0,3.532028157E-1,3.655980229E0
6.086967042E0,-2.170537906E0,4.426640457E0,-3.058608341E-1,4.939628669E0
6.096924042E0,-2.683150438E0,5.279835759E0,-4.295452327E-1,5.938052798E0
6.106881042E0,-2.293613024E0,5.844796659E0,1.798451507E0,6.531212485E0
6.116839042E0,-9.791443276E-1,6.226102363E0,5.341615686E0,8.261714857E0
6.126796042E0,1.380453941E0,4.630760908E0,9.075854593E0,1.028205895E1
6.136753042E0,4.448472206E0,5.206676567E-1,9.440533154E0,1.044909881E1
6.146710042E0,7.359966356E0,-3.288552436E0,6.132520015E0,1.012874541E1
6.156668042E0,8.815021997E0,-6.519494010E0,3.469229060E-1,1.096944714E1
6.166625042E0,9.786497701E0,-9.940991664E0,-4.481087098E0,1.465192800E1
6.176582042E0,9.584588667E0,-1.293421644E1,-6.095451007E0,1.721373922E1
6.186539042E0,8.873911645E0,-1.470278867E1,-6.944452686E0,1.852413900E1
6.196497042E0,9.447618810E0,-1.507321446E1,-7.986413067E0,1.949979716E1
6.206454042E0,8.854393054E0,-1.471852236E1,-4.471930066E0,1.774917844E1
6.216411042E0,6.119963120E0,-1.258574811E1,-1.403014838E0,1.406497262E1
6.226369042E0,4.871623508E0,-8.421783296E0,-3.550540441E0,1.035690528E1
6.236326042E0,4.075724487E0,-4.642413824E0,-4.106063350E0,7.417768697E0
6.246283042E0,3.032939649E0,-2.209735885E0,-3.166806974E0,4.910226268E0
6.256240042E0,2.663195060E0,-5.117138153E-1,-1.646879983E0,3.172802017E0
6.266198042E0,3.958828706E0,8.888796902E-1,1.294281185E-1,4.059456055E0
6.276155042E0,4.048093470E0,1.067164219E0,5.578401607E-1,4.223397430E0
6.286112042E0,2.586926318E0,7.151320159E-1,4.710493541E-1,2.724975059E0
6.296069042E0,1.730895701E0,1.288159150E-1,1.339262061E0,2.192308449E0
6.306027042E0,1.283810576E0,-5.685440737E-1,1.728971382E0,2.227275016E0
6.315984042E0,1.033690664E0,-9.975572097E-1,2.228951005E0,2.651765329E0
6.325941042E0,-1.971786368E-1,-8.458932996E-1,1.785455193E0,1.985513822E0
6.335899042E0,-2.094808277E0,-4.259877867E-1,7.653309470E-1,2.270554727E0
6.345856042E0,-3.238342980E0,4.122754812E-2,-8.249251842E-1,3.342015339E0
6.355813042E0,-3.947305598E0,4.121544439E-1,-2.899795040E0,4.915272530E0
6.365770042E0,-4.499570439E0,8.037518317E-1,-4.260815760E0,6.248736039E0
6.375728042E0,-4.077419010E0,2.097804390E0,-3.648416984E0,5.859784598E0
6.385685042E0,-2.670165526E0,3.501585213E0,-2.663923624E0,5.146588386E0
6.395642042E0,-1.565094393E0,4.771741371E0,-1.836131549E0,5.347000583E0
6.405599042E0,-7.443821275E-1,5.530015313E0,-6.104715335E-1,5.613185335E0
6.415557042E0,-4.176900029E-2,6.147880066E0,4.225417301E-1,6.162525089E0
6.425514042E0,1.020570681E0,6.643031643E0,8.868705869E-1,6.779231030E0
6.435471042E0,2.061272156E0,7.069466742E0,9.849313170E-1,7.429420745E0
6.445428042E0,3.238794385E0,7.004836882E0,1.309553527E0,7.827672659E0
6.455386042E0,3.593978822E0,6.317392602E0,1.291154678E0,7.381951873E0
6.465343042E0,2.711932188E0,4.761248542E0,1.660208126E0,5.725413076E0
6.475300042E0,1.233678303E0,2.878005391E0,2.414905327E0,3.954319780E0
6.485258042E0,9.876064181E-2,1.927290226E0,2.098780875E0,2.851154581E0
6.495215042E0,3.858027971E-1,1.779812922E0,7.860581571E-1,1.983548654E0
6.505172042E0,9.979296774E-1,1.000896555E0,-4.727982563E-1,1.490367654E0
6.515129042E0,1.954337107E0,-3.970727205E-1,5.115196878E-1,2.058823126E0
6.525087042E0,4.585100001E0,-2.669622905E0,3.239228833E-1,5.315538967E0
6.535044042E0,7.365690195E0,-5.974388500E0,1.153971398E0,9.553970901E0
6.545001042E0,7.200780002E0,-8.484444982E0,9.806511551E-1,1.117133457E1
6.554958042E0,3.124412906E0,-7.784015790E0,-7.740883219E-1,8.423305204E0
6.564916042E0,-6.395380425E-1,-4.571820390E0,-9.257972556E-1,4.708253513E0
6.574873042E0,-2.121261665E0,-2.451362132E0,-4.298112810E-2,3.242032500E0
6.584830042E0,-2.992704374E0,-6.348748881E-1,2.599806565E-1,3.070331502E0
6.594787042E0,-3.399885761E0,9.675504684E-2,-8.224845564E-1,3.499295010E0
6.604745042E0,-3.097193533E0,-2.680831432E-2,-1.677467645E0,3.522388985E0
6.614702042E0,-1.945304328E0,-4.589163816E-1,-1.752167579E0,2.657988789E0
6.624659042E0,-5.130382097E-1,-1.278168012E0,-1.521935509E0,2.052610379E0
6.634617042E0,7.367860097E-1,-2.275374974E0,-1.854131618E0,3.026216938E0
6.644574042E0,1.368918554E0,-3.012721732E0,-2.464207295E0,4.125863283E0
6.654531042E0,1.662900184E0,-3.382898430E0,-2.375525207E0,4.455598592E0
6.664488042E0,1.802723483E0,-2.901707665E0,-1.423077804E0,3.700658018E0
6.674446042E0,1.368245539E0,-1.716838995E0,-2.954580528E-1,2.215158561E0
6.684403042E0,1.484269500E0,-1.349502289E0,-4.772354159E-1,2.062029588E0
6.694360042E0,1.489881658E0,-6.552863485E-1,-1.300827727E0,2.083578731E0
6.704317042E0,7.483699286E-1,4.245645744E-1,-1.699381840E0,1.904786409E0
6.714275042E0,4.517207980E-2,9.357731903E-1,-1.844072653E0,2.068409034E0
6.724232042E0,-4.949714828E-1,9.491469419E-1,-1.811729364E0,2.104338370E0
6.734189042E0,-1.071486481E0,1.004940489E0,-1.716675273E0,2.259416442E0
6.744146042E0,-1.490500878E0,7.368976915E-1,-1.684221764E0,2.366688409E0
6.754104042E0,-1.482079718E0,1.124635917E-1,-1.853927550E0,2.376185117E0
6.764061042E0,-1.288790649E0,-6.873530638E-1,-1.841889595E0,2.350743043E0
6.774018042E0,-1.053906242E0,-1.722986172E0,-1.362065909E0,2.436108220E0
6.783976042E0,-1.098812274E0,-3.111895187E0,-8.225766501E-1,3.401163391E0
6.793933042E0,-1.846494570E0,-4.775849040E0,7.793063772E-1,5.179343074E0
6.803890042E0,-3.525020269E0,-5.596050843E0,2.907476235E0,7.224608708E0
6.813847042E0,-4.637008073E0,-5.608789002E0,4.280197526E0,8.442774947E0
6.823805042E0,-5.276601080E0,-4.876218835E0,4.270610431E0,8.358118361E0
6.833762042E0,-6.522407677E0,-3.636886860E0,3.496665950E0,8.245933586E0
6.843719042E0,-8.917636539E0,-2.805052605E0,3.055414592E0,9.835045495E0
6.853676042E0,-9.180065424E0,-2.627884895E0,2.693728636E0,9.921469356E0
6.863634042E0,-7.418346126E0,-2.399652280E0,2.692293144E0,8.248553369E0
6.873591042E0,-4.896252565E0,-2.193749013E0,2.136724042E0,5.775068272E0
6.883548042E0,-3.876175974E0,-1.666648834E0,1.975689092E0,4.658949013E0
6.893505042E0,-2.140883752E0,-5.447336268E-1,4.550493548E0,5.058370240E0
6.903463042E0,2.315515525E0,1.219561370E0,5.762614043E0,6.329033314E0
6.913420042E0,6.810790014E0,3.708463211E0,5.225026299E0,9.350960369E0
6.923377042E0,8.908335373E0,6.383484265E0,1.486047054E0,1.105964042E1
6.933335042E0,8.170966396E0,6.821023226E0,-1.501297177E0,1.074918336E1
6.943292042E0,3.896854067E0,5.344227052E0,-7.632382286E-1,6.657985206E0
6.953249042E0,-8.015304744E-2,3.943466901E0,1.632334303E0,4.268708351E0
6.963206042E0,-1.379694095E0,3.149570552E0,3.388921646E0,4.827850493E0
6.973164042E0,-1.060412731E0,2.988646991E0,4.173004029E0,5.241225870E0
6.983121042E0,-3.889854366E-1,3.103405614E0,4.594325738E0,5.557901138E0
6.993078042E0,3.405608431E-1,3.579394696E0,4.781808522E0,5.982787044E0
7.003035042E0,1.267593908E0,4.361660934E0,4.651763522E0,6.501521690E0
7.012993042E0,2.011120003E0,5.103104836E0,4.303768821E0,6.971994600E0
7.022950042E0,2.569500446E0,5.515755123E0,3.978106391E0,7.269884290E0
7.032907042E0,3.104765384E0,5.439972285E0,3.688239446E0,7.268835998E0
7.042865042E0,3.031537779E0,5.521653795E0,2.742812503E0,6.870364063E0
7.052822042E0,2.631979407E0,5.411184688E0,2.019154077E0,6.347063771E0
7.062778833E0,2.381167770E0,4.172235121E0,2.073817942E0,5.232420731E0
7.072735833E0,1.765083202E0,3.256841231E0,1.636526318E0,4.049784180E0
7.082693833E0,1.688214243E0,2.672503828E0,1.258638312E0,3.402427727E0
7.092650833E0,1.693729044E0,2.077454910E0,1.127795168E0,2.907999126E0
7.102607833E0,9.511156994E-1,1.421596704E0,1.100783955E0,2.034031361E0
7.112564833E0,-9.237431288E-3,8.222535914E-1,1.680976267E0,1.871327739E0
7.122522833E0,-3.242707926E-1,6.432831842E-1,2.831556864E0,2.921759586E0
7.132479833E0,3.877385178E-1,1.036235372E0,3.825069555E0,3.981869160E0
7.142436833E0,1.582789822E0,1.635936919E0,4.689997880E0,5.213213341E0
7.152394833E0,2.831193752E0,2.248242139E0,5.138302735E0,6.282706883E0
7.162351833E0,3.621280641E0,3.071319019E0,4.068203214E0,6.252755503E0
7.172308833E0,4.606580040E0,3.299683195E0,2.010107119E0,6.012405466E0
7.182265833E0,5.618168521E0,2.216627414E0,6.228331321E-1,6.071669929E0
7.192223833E0,5.265859745E0,6.056528431E-1,-4.348471954E-2,5.300753261E0
7.202180833E0,4.929769390E0,-6.047248900E-1,-9.140557542E-2,4.967562120E0
7.212137833E0,5.093533528E0,-1.263028402E0,-3.580938654E-1,5.259995795E0
7.222094833E0,4.934552413E0,-1.687750851E0,-7.833567435E-1,5.273704413E0
7.232052833E0,4.472455730E0,-1.813625032E0,-1.322745723E0,5.004173485E0
7.242009833E0,4.280943046E0,-2.268239617E0,-2.108796132E0,5.283787036E0
7.251966833E0,4.195787120E0,-3.528451415E0,-2.931102787E0,6.216587689E0
7.261924833E0,4.874120269E0,-6.850618908E0,-3.818316313E0,9.234043930E0
7.271881833E0,4.838461025E0,-1.079730002E1,-5.165572979E0,1.291028803E1
7.281838833E0,2.547299153E0,-9.588858304E0,-3.991745022E0,1.069434266E1
7.291795833E0,7.597743380E-1,-4.970110500E0,-1.965865185E0,5.398507327E0
7.301753833E0,4.338166237E-1,-1.752520459E0,-5.502452123E-1,1.887404200E0
7.311710833E0,9.933162242E-1,3.769214612E-1,4.687739101E-1,1.161247557E0
7.321667833E0,1.294960046E0,1.424296364E0,2.762049258E-1,1.944692987E0
7.331624833E0,2.611448371E0,4.581100506E-1,-3.739370424E-1,2.677565373E0
7.341582833E0,4.312896325E0,-1.540986907E-1,-2.766164528E0,5.126059628E0
7.351539833E0,4.423010505E0,-1.581198210E-1,-6.044634025E0,7.491703699E0
7.361496833E0,3.694052163E0,5.146719217E-2,-6.494176151E0,7.471478711E0
7.371453833E0,2.645322461E0,7.595357716E-2,-5.200465069E0,5.835095270E0
7.381411833E0,1.196878851E0,4.060891271E-1,-4.409433271E0,4.586995654E0
7.391368833E0,-1.818916762E-1,6.509816283E-1,-4.367775075E0,4.419764787E0
7.401325833E0,-1.300824804E0,9.461689550E-1,-4.085532899E0,4.390781244E0
7.411283833E0,-2.394259978E0,1.389777326E0,-3.615978093E0,4.554037706E0
7.421240833E0,-3.335249469E0,1.790979350E0,-2.956048471E0,4.803094692E0
7.431197833E0,-3.932916770E0,1.931383862E0,-2.298793950E0,4.947982575E0
7.441154833E0,-4.102899422E0,1.844431672E0,-1.641284490E0,4.788478531E0
7.451112833E0,-4.150482894E0,1.735603879E0,-9.371513790E-1,4.595332608E0
7.461069833E0,-4.344798149E0,1.335954875E0,-6.114749157E-1,4.586496261E0
7.471026833E0,-4.486738139E0,8.340544420E-1,-3.842462683E-1,4.579750117E0
7.480983833E0,-4.329179066E0,9.249979413E-1,-8.947789460E-2,4.427800681E0
7.490941833E0,-3.783943164E0,1.429937757E0,-5.857009739E-2,4.045538075E0
7.500898833E0,-3.243603719E0,1.906759483E0,-6.702563900E-1,3.821771898E0
7.510855833E0,-2.956794868E0,2.112223624E0,-1.124932078E0,3.803892311E0
7.520813833E0,-2.915346880E0,2.199921334E0,-9.620666572E-1,3.776833801E0
7.530770833E0,-2.962464328E0,2.289263281E0,-6.285332903E-1,3.796310757E0
7.540727833E0,-2.947915286E0,2.331865509E0,-3.895488158E-1,3.778829127E0
7.550684833E0,-2.744942644E0,2.334080434E0,-2.599558058E-1,3.612508631E0
7.560642833E0,-2.321884897E0,2.367531770E0,-1.910492930E-1,3.321574324E0
7.570599833E0,-1.793794200E0,2.481101071E0,-2.398589256E-1,3.071008378E0
7.580556833E0,-1.292445744E0,2.500820805E0,-5.242093152E-1,2.863444797E0
7.590513833E0,-5.119968206E-1,2.415841466E0,-7.773092607E-1,2.588945813E0
7.600471833E0,1.776886976E-1,2.522898138E0,-7.962115547E-1,2.651516759E0
7.610428833E0,6.787792915E-1,2.790775459E0,-6.683791414E-1,2.948881087E0
7.620385833E0,9.472144371E-1,3.058056364E0,-5.304798692E-1,3.245047428E0
7.630343833E0,9.164808869E-1,3.243904851E0,-5.353172708E-1,3.413124738E0
7.640300833E0,8.560329562E-1,3.106249700E0,-6.455945885E-1,3.286087643E0
7.650257833E0,6.880523908E-1,2.870061949E0,-9.498374981E-1,3.100461733E0
7.660214833E0,2.767335141E-1,2.496604378E0,-1.258020408E0,2.809311340E0
7.670172833E0,-2.394768101E-1,2.175289353E0,-1.279973633E0,2.535264367E0
7.680129833E0,-7.835929710E-1,1.915192337E0,-1.103433474E0,2.345110885E0
7.690086833E0,-1.179349483E0,1.745051810E0,-9.100553817E-1,2.294400101E0
7.700043833E0,-1.401930764E0,1.666760516E0,-7.717897815E-1,2.310662232E0
7.710001833E0,-1.365563421E0,1.628071829E0,-7.537214465E-1,2.254656816E0
7.719958833E0,-1.060920562E0,1.691270290E0,-6.500603995E-1,2.099649055E0
7.729915833E0,-6.585882711E-1,1.729462548E0,-4.197624023E-1,1.897624750E0
7.739873833E0,-4.606220144E-1,1.391744329E0,-3.852398564E-1,1.515762074E0
7.749830833E0,-4.165620750E-1,9.546778232E-1,-8.013711378E-1,1.314202956E0
7.759787833E0,-6.137009507E-1,4.676269788E-1,-1.442568328E0,1.635942306E0
7.769744833E0,-1.192661254E0,-3.731108308E-3,-1.559682795E0,1.963431998E0
7.779702833E0,-1.473640432E0,-3.533840793E-1,-5.572514923E-1,1.614628643E0
7.789659833E0,-8.233873665E-1,-3.226996458E-1,5.046337143E-1,1.018212651E0
7.799616833E0,1.363277745E0,7.978467286E-2,1.746097146E0,2.216697329E0
7.809573833E0,4.022210185E0,1.139548071E0,3.227502242E0,5.281431179E0
7.819531833E0,4.790926670E0,1.960307114E0,3.477149406E0,6.235892104E0
7.829488833E0,7.201757657E0,2.156818584E0,3.040477295E0,8.109357677E0
7.839445833E0,8.331951352E0,3.684048162E0,8.486181021E-2,9.110478897E0
7.849403833E0,3.955976434E0,5.297934061E0,-2.120901623E0,6.943779847E0
7.859360833E0,-5.168997109E-1,1.968509004E0,-9.792729664E-1,2.258581092E0
7.869317833E0,-5.180574596E-1,-7.455843151E-1,-2.931211545E0,3.068595872E0
7.879274833E0,2.255428952E0,-1.560886737E0,-8.777860018E0,9.196420698E0
7.889232833E0,3.236387086E0,-3.214234325E0,-6.533591062E-2,4.561772950E0
7.899189833E0,2.524672183E0,-4.982412457E0,8.558482427E0,1.021988380E1
7.909146833E0,2.760655866E0,-6.172537190E0,1.408441638E1,1.562345100E1
7.919104833E0,8.258924307E0,-6.963321066E0,9.218382813E0,1.420127645E1
7.929061833E0,1.115025901E1,-4.675961055E0,-5.915528673E0,1.346054855E1
7.939018833E0,4.246411144E0,-2.311920072E0,-9.449983424E0,1.061504445E1
7.948975833E0,-5.066044014E0,-2.476499312E0,-5.329473943E0,7.758939573E0
7.958933833E0,-7.915666435E0,-4.878824354E0,-3.552595738E0,9.953976023E0
7.968890833E0,-5.501970313E0,-7.407393706E0,-7.991164514E-1,9.261735580E0
7.978847833E0,-1.202002766E0,-6.566502700E0,2.685064816E0,7.195369443E0
7.988804833E0,2.160611672E0,-4.706934925E0,4.926233579E0,7.147814803E0
7.998762833E0,3.587496598E0,-3.008825147E0,4.753237564E0,6.672063245E0
8.008719833E0,2.835418366E0,-1.636118183E0,3.590523410E0,4.858841258E0
8.018676833E0,1.807116496E0,-9.210300207E-1,2.165198813E0,2.966825278E0
8.028633833E0,9.742718428E-1,1.295129031E-1,5.412074634E-1,1.122000327E0
8.038591833E0,3.784125012E-1,1.674318042E0,-8.171475103E-1,1.901122558E0
8.048548833E0,2.064026195E-1,3.105504180E0,-1.650646759E0,3.522980695E0
8.058505917E0,-9.692169249E-2,4.136411569E0,-2.301421104E0,4.734536258E0
8.068463917E0,-6.325810254E-1,4.685831155E0,-2.878524332E0,5.535618727E0
8.078420917E0,-1.348726948E0,4.953526043E0,-3.079406887E0,5.986587627E0
8.088377917E0,-2.056869203E0,5.056953932E0,-2.778877544E0,6.125818671E0
8.098334917E0,-2.513249062E0,5.175065349E0,-2.023427222E0,6.098522767E0
8.108292917E0,-2.490082979E0,5.226381683E0,-9.950145480E-1,5.874149529E0
8.118249917E0,-2.077323933E0,5.094504751E0,-7.486482561E-2,5.502259365E0
8.128206917E0,-1.716572362E0,4.878129705E0,3.299803063E-1,5.181858460E0
8.138163917E0,-1.698796241E0,4.631077827E0,1.847133963E-1,4.936284995E0
8.148121917E0,-1.649345169E0,4.334271407E0,-1.780117562E-1,4.640898221E0
8.158078917E0,-1.590206430E0,4.051136361E0,-3.918257216E-1,4.369667001E0
8.168035917E0,-1.552912889E0,3.777473220E0,-2.238124117E-1,4.090346484E0
8.177993917E0,-8.265413547E-1,2.990566632E0,7.041303335E-1,3.181581197E0
8.187950917E0,2.722235566E-1,1.589938043E0,1.727246308E0,2.363342644E0
8.197907917E0,1.150953065E0,6.096798205E-1,1.935283370E0,2.332750343E0
8.207864917E0,1.263800819E0,1.582040209E-1,1.456669912E0,1.934969833E0
8.217822917E0,2.590427631E-1,9.407059014E-2,1.336803891E0,1.364916507E0
8.227779917E0,-1.164061353E0,7.551912904E-1,1.864466426E0,2.324131617E0
8.237736917E0,-2.129730188E0,1.509998419E0,1.936589638E0,3.250573076E0
8.247694917E0,-2.337678226E0,1.936542860E0,1.920741929E0,3.592239872E0
8.257651917E0,-2.304463702E0,2.237463382E0,2.151361962E0,3.865896226E0
8.267608917E0,-2.067043943E0,2.222029656E0,2.323360588E0,3.822053228E0
8.277565917E0,-1.647726660E0,2.128584718E0,2.607953491E0,3.747972446E0
8.287523917E0,-1.000300723E0,2.028630075E0,3.308623003E0,4.007858243E0
8.297480917E0,-5.008292234E-1,1.715567810E0,4.194702462E0,4.559553878E0
8.307437917E0,-1.943234414E-1,1.175782097E0,5.326714641E0,5.458398484E0
8.317395917E0,1.364558870E-1,2.315865773E-1,5.604770211E0,5.611212139E0
8.327352917E0,1.096711954E0,-1.613503491E0,5.227989668E0,5.580147542E0
8.337309917E0,1.344615186E0,-3.497595658E0,4.691785959E0,6.004500052E0
8.347266917E0,2.202189469E0,-5.595299476E0,4.631937953E0,7.590247946E0
8.357224917E0,2.809384223E0,-7.346059338E0,3.130733746E0,8.465147447E0
8.367181917E0,3.478463568E0,-8.389775637E0,-2.344660386E-1,9.085318837E0
8.377138917E0,4.194823499E0,-7.520291162E0,-4.024384180E0,9.505103438E0
8.387095917E0,4.465956550E0,-6.079149554E0,-3.248581454E0,8.213045031E0
8.397053917E0,5.412485694E0,-7.728309367E0,-2.224186986E0,9.693749264E0
8.407010917E0,9.385642417E0,-1.262191899E1,-8.209832838E0,1.774273028E1
8.416967917E0,1.015621832E1,-1.142912091E1,-1.041454363E1,1.849962957E1
8.426925917E0,6.426924400E0,-5.719361020E0,-5.279745712E0,1.009416477E1
8.436882917E0,3.083424509E0,-3.546802901E0,-2.320914259E0,5.241560886E0
8.446839917E0,3.358593893E-1,-2.668948136E0,-1.599236285E0,3.129479570E0
8.456796917E0,-1.102564432E0,-1.815039473E0,-1.681956260E0,2.709057673E0
8.466754917E0,-1.441716388E0,-5.833731973E-1,-1.180510156E0,1.952555930E0
8.476711917E0,-1.123154817E0,-1.279657298E-1,-6.649857098E-1,1.311509804E0
8.486668917E0,-6.194130957E-2,-5.648269987E-1,-1.153444564E0,1.285807383E0
8.496625917E0,5.894882154E-1,-6.340627098E-1,-1.992192858E0,2.172179610E0
8.506583917E0,5.026804519E-1,-6.232944775E-1,-1.606927128E0,1.795382532E0
8.516540917E0,-2.365438467E-1,-5.763939607E-1,-6.509865984E-1,9.010918603E-1
8.526497917E0,-1.096327207E0,5.306289732E-2,-6.971605986E-2,1.099822415E0
8.536455917E0,-1.682142786E0,1.019670795E0,-2.718095738E-1,1.985752585E0
8.546412917E0,-2.142420400E0,1.662100285E0,-8.430731875E-1,2.839597670E0
8.556369917E0,-2.993699570E0,2.149660422E0,-1.787628603E0,4.096204715E0
8.566326917E0,-3.926978922E0,2.608110781E0,-3.071970983E0,5.626758483E0
8.576284917E0,-4.983601781E0,2.808397213E0,-4.473220546E0,7.261754862E0
8.586241917E0,-5.892557302E0,2.579443637E0,-5.446147529E0,8.428302554E0
8.596198917E0,-5.626856899E0,2.527092345E0,-4.414479418E0,7.585205522E0
8.606155917E0,-4.673071945E0,3.510602789E0,-2.583045229E0,6.390153050E0
8.616113917E0,-3.982615764E0,4.660612698E0,-1.162748946E0,6.239753533E0
8.626070917E0,-2.693121695E0,5.772337378E0,-2.942310145E-1,6.376468863E0
8.636027917E0,-2.272669467E0,6.162608618E0,3.577686140E-1,6.578052133E0
8.645985917E0,-1.801440604E0,5.741989160E0,8.154304755E-1,6.072936244E0
8.655942917E0,-8.842235523E-1,4.931890760E0,8.792060566E-1,5.087081781E0
8.665899917E0,1.806830567E-1,4.000691262E0,7.668259339E-1,4.077523630E0
8.675856917E0,8.258268249E-1,2.933039970E0,1.045289054E0,3.221388306E0
8.685814917E0,9.811516768E-1,1.795494570E0,1.469262768E0,2.518966543E0
8.695771917E0,6.868309075E-1,1.045901989E0,1.714113607E0,2.122223627E0
8.705728917E0,3.314283693E-1,9.647958452E-1,2.102630682E0,2.337034782E0
8.715686917E0,2.120007437E-1,1.413518776E0,2.494822147E0,2.875259499E0
8.725643917E0,1.788405991E-1,1.994522097E0,2.582861919E0,3.268222460E0
8.735600917E0,3.213524473E-1,2.696822398E0,2.535625772E0,3.715577545E0
8.745557917E0,4.348650295E-1,3.495585970E0,2.185324929E0,4.145343642E0
8.755515917E0,7.114313132E-1,4.025498074E0,1.589933950E0,4.386189602E0
8.765472917E0,2.034380811E0,4.135234525E0,1.193599733E0,4.760624978E0
8.775429917E0,3.783357857E0,3.900362397E0,3.517105331E-1,5.445211089E0
8.785386917E0,5.104861339E0,2.709662299E0,-2.355916861E0,6.241171631E0
8.795344917E0,3.579642034E0,2.589333032E0,-3.932544887E0,5.914675978E0
8.805301917E0,-1.599459064E0,5.772008765E-1,3.012736934E-1,1.726903584E0
8.815258917E0,-4.764513627E0,-9.948791850E0,-2.116953583E0,1.123212099E1
8.825216917E0,-3.515781668E0,-1.180760884E1,-6.249573087E0,1.381439507E1
8.835173917E0,-6.700803888E-1,-5.874529751E0,2.637567299E0,6.474246580E0
8.845130917E0,-1.575939808E0,-2.893812169E0,6.296709831E0,7.106777740E0
8.855087917E0,-1.124024298E0,-5.172363936E0,1.907283393E0,5.626234020E0
8.865045917E0,1.371065066E0,-8.053707502E0,6.202412369E0,1.025728732E1
8.875002917E0,6.369404170E0,-8.594833397E0,1.111315375E1,1.542539001E1
8.884959917E0,1.121869950E1,-6.779665285E0,9.795740980E0,1.636397327E1
8.894917917E0,1.170586495E1,-3.730054055E0,1.909092522E0,1.243323014E1
8.904874917E0,7.883758764E0,-1.582560026E0,-5.184466503E0,9.567488772E0
8.914831917E0,2.095387151E0,-1.472095013E-2,-8.961702325E0,9.203421787E0
8.924788917E0,-2.577567850E0,1.458394986E-1,-7.728282470E0,8.148096410E0
8.934746917E0,-5.394368681E0,-1.012249509E0,-3.447537352E0,6.481464057E0
8.944703917E0,-5.961498313E0,-1.864104044E0,-1.115355801E0,6.344947958E0
8.954660917E0,-3.568229438E0,-2.779673935E0,2.058523965E-1,4.527827704E0
8.964617917E0,-4.629012591E-1,-2.883149772E0,1.248716757E0,3.175865822E0
8.974575917E0,1.352842219E0,-1.578831841E0,2.026209620E0,2.903173690E0
8.984532917E0,2.263977581E0,2.196851546E-1,2.507421727E0,3.385412792E0
8.994489917E0,2.260554036E0,1.578287466E0,2.588112134E0,3.781457430E0
9.004447917E0,1.495230691E0,2.250848243E0,1.924771830E0,3.317646641E0
9.014404917E0,8.156783974E-1,2.908869919E0,8.174112198E-1,3.129699116E0
9.024361917E0,6.292679930E-1,4.008855729E0,-1.565182686E-2,4.057973317E0
9.034318917E0,2.335301918E-1,5.232629433E0,-5.359528631E-1,5.265186854E0
9.044276917E0,-8.773817253E-1,6.255349551E0,-9.368672043E-1,6.385680610E0
9.054233917E0,-2.506247022E0,6.956340076E0,-1.515601805E0,7.547780483E0
9.064195333E0,-4.008223645E0,7.249133552E0,-1.977004716E0,8.516122456E0
9.074153333E0,-4.779083135E0,7.098917997E0,-1.914192025E0,8.769173476E0
9.084110333E0,-4.531350056E0,6.711351680E0,-1.432103712E0,8.223520885E0
9.094067333E0,-3.791325274E0,6.290708833E0,-8.235231681E-1,7.390896790E0
9.104024333E0,-3.675220621E0,6.045225763E0,-3.104935831E-1,7.081554025E0
9.113982333E0,-3.479316092E0,6.070238398E0,-3.506771109E-1,7.005455668E0
9.123939333E0,-2.627595457E0,5.943859017E0,-2.895380393E-2,6.498811909E0
9.133896333E0,-9.820053703E-1,5.130314269E0,1.579438051E0,5.457021496E0
9.143853333E0,-3.393829215E-1,4.229720852E0,2.948573683E0,5.167185502E0
9.153811333E0,-4.566792369E-2,2.822311832E0,3.535135659E0,4.523794178E0
9.163768333E0,8.087254733E-1,2.537077636E-1,3.852512585E0,3.944649254E0
9.173725333E0,1.316300629E0,-9.597853661E-1,6.986334538E0,7.173751151E0
9.183683333E0,-2.045163077E-1,6.380288762E-1,1.034771112E1,1.036937960E1
9.193640333E0,-7.449598324E-1,1.694486843E0,1.118925643E1,1.134132754E1
9.203597333E0,-1.082630689E0,1.650170796E0,1.073099260E1,1.091097406E1
9.213554333E0,-5.024085563E-1,2.019294995E-1,9.643424520E0,9.658614102E0
9.223512333E0,6.328137445E-1,-4.276882739E0,7.765853169E0,8.888231244E0
9.233469333E0,3.899070747E0,-1.074733557E1,3.498763347E0,1.195614149E1
9.243426333E0,6.670893041E0,-1.714476953E1,-4.869260941E0,1.903033469E1
9.253384333E0,7.451554803E0,-1.803747096E1,-8.206780592E0,2.117137869E1
9.263341333E0,7.852066271E0,-1.297990424E1,-5.251998335E0,1.605354619E1
9.273298333E0,7.886033331E0,-8.493577749E0,-1.529964438E1,1.919399653E1
9.283255333E0,6.690212826E0,-8.002491156E0,-1.470115029E1,1.802561045E1
9.293213333E0,8.378522086E-1,-9.239644459E0,-8.748954892E-2,9.277967475E0
9.303170333E0,-1.990484009E0,-8.283360990E0,-2.618236989E-1,8.523182946E0
9.313127333E0,-1.075815759E0,-5.988872638E0,-1.458245882E0,6.257032529E0
9.323084333E0,1.292535791E0,-3.641208537E0,-2.726035087E0,4.728669546E0
9.333042333E0,2.121317214E0,-1.064653425E0,-2.776491296E0,3.652721937E0
9.342999333E0,1.018530003E0,7.348084813E-1,-1.325300956E0,1.825861302E0
9.352956333E0,-2.297908974E-1,1.265303553E0,-3.695910993E-1,1.338056247E0
9.362914333E0,-1.698128489E0,1.283619956E0,-8.463277477E-1,2.290762147E0
9.372871333E0,-2.686511418E0,1.601690946E0,-1.329690753E0,3.398651936E0
9.382828333E0,-3.187948167E0,1.966335593E0,-1.432416100E0,4.010150254E0
9.392785333E0,-3.794809629E0,2.173921689E0,-1.474750233E0,4.615344395E0
9.402743333E0,-4.246608780E0,2.283266376E0,-1.809360073E0,5.149832555E0
9.412700333E0,-4.156905475E0,2.104200075E0,-2.165421592E0,5.137759410E0
9.422657333E0,-3.549965660E0,1.918973731E0,-2.328087038E0,4.658830929E0
9.432615333E0,-2.517647338E0,1.925255980E0,-2.474403670E0,4.020924300E0
9.442572333E0,-9.102132565E-1,1.763256531E0,-3.237712650E0,3.797412931E0
9.452529333E0,9.482534873E-1,1.889438276E0,-3.553804649E0,4.135056125E0
9.462486333E0,2.132220517E0,2.969116121E0,-1.977402326E0,4.155975798E0
9.472444333E0,2.730055048E0,3.966280398E0,-5.615268302E-1,4.847668836E0
9.482401333E0,3.410841104E0,4.393354597E0,-1.726448894E-2,5.561987029E0
9.492358333E0,3.563214281E0,4.251716908E0,1.797960341E-2,5.547424262E0
9.502316333E0,2.858889089E0,3.880224001E0,-2.649597068E-1,4.826964758E0
9.512273333E0,1.621025934E0,3.934936398E0,-4.748434661E-1,4.282163689E0
9.522230333E0,6.643039244E-1,4.070263773E0,-6.971372098E-2,4.124706885E0
9.532187333E0,-1.566457379E-1,4.250952677E0,5.090205878E-1,4.284184695E0
9.542145333E0,-8.513113296E-1,4.246920437E0,6.453414041E-1,4.379215649E0
9.552102333E0,-1.298976499E0,3.929124266E0,4.428529108E-1,4.161907753E0
9.562059333E0,-1.783372707E0,3.641134862E0,2.266643912E-1,4.060745996E0
9.572017333E0,-2.143154225E0,3.431536739E0,2.301715511E-1,4.052349117E0
9.581974333E0,-2.746113841E0,3.561056074E0,-3.440443218E-1,4.510058546E0
9.591931333E0,-3.506768185E0,3.377363455E0,-7.836586060E-1,4.931341382E0
9.601888333E0,-2.756715428E0,2.693966618E0,-1.687798798E-2,3.854506577E0
9.611846333E0,-2.339808367E0,3.363654658E0,2.108922725E0,4.608300219E0
9.621803333E0,-4.084832695E0,-8.974704194E-1,9.419642807E0,1.030635638E1
9.631760333E0,-3.706877446E0,-5.881169849E0,8.005841610E0,1.060295238E1
9.641717333E0,3.832828225E0,-4.966941894E0,-1.005720274E1,1.185362438E1
9.651675333E0,2.054414542E0,-8.502915752E-1,3.729101543E0,4.341637156E0
9.661632333E0,-3.328802329E0,-7.361001313E-1,5.879296986E0,6.796241711E0
9.671589333E0,-2.397901624E0,-4.531493897E0,4.222204256E0,6.641639701E0
9.681547333E0,1.708650554E0,-5.187516410E0,3.261618114E0,6.361443700E0
9.691504333E0,3.526908919E0,-3.930423517E0,1.279229867E0,5.433575674E0
9.701461333E0,2.698778876E0,-3.647089666E0,1.663312998E0,4.832316275E0
9.711419333E0,3.289288015E0,-4.436325785E0,4.214793495E0,6.947293453E0
9.721376333E0,5.848167579E0,-4.613164882E0,4.398321222E0,8.650293858E0
9.731333333E0,8.435425435E0,-2.620892794E0,1.425725715E0,8.947523407E0
9.741290333E0,9.464742381E0,-8.023116624E-1,-1.692419853E0,9.648281572E0
9.751248333E0,7.131694565E0,-1.387620873E0,-2.364312586E0,7.640453721E0
9.761205333E0,2.721990568E0,-4.141976949E0,-1.137032014E0,5.085080874E0
9.771162333E0,-3.765232658E-1,-5.634731929E0,-1.995467591E-1,5.650822293E0
9.781119333E0,-1.573131976E0,-4.411182758E0,5.599638695E-1,4.716655284E0
9.791077333E0,-1.592132503E0,-2.054405771E0,1.581340297E0,3.042384938E0
9.801034333E0,-1.004931133E0,7.105536461E-2,2.181635044E0,2.403012050E0
9.810991333E0,-7.878854120E-1,1.119951712E0,2.033513962E0,2.451577919E0
9.820949333E0,-1.194501958E0,1.569861043E0,1.527157073E0,2.494695843E0
9.830906333E0,-1.571999955E0,1.990586336E0,1.329001220E0,2.863540127E0
9.840863333E0,-1.796895563E0,2.346112250E0,1.370472159E0,3.257494481E0
9.850820333E0,-1.582909105E0,2.638277151E0,1.642381135E0,3.487624314E0
9.860778333E0,-1.107194842E0,2.883894122E0,2.083113846E0,3.725867553E0
9.870735333E0,-8.617731678E-1,3.276905951E0,2.325039470E0,4.109327700E0
9.880692333E0,-1.042411201E0,3.958065060E0,2.281992853E0,4.686191578E0
9.890650333E0,-1.244032552E0,4.475724324E0,2.142425662E0,5.115634167E0
9.900607333E0,-1.278436984E0,4.649206535E0,2.031785817E0,5.232368119E0
9.910564333E0,-1.052657862E0,4.544019218E0,2.366393902E0,5.230298207E0
9.920521333E0,-4.200242114E-1,4.431645089E0,3.371296969E0,5.584043498E0
9.930479333E0,2.184660101E-1,4.314869176E0,4.248002756E0,6.058989257E0
9.940436333E0,6.773332751E-1,4.043810969E0,4.836233820E0,6.340374207E0
9.950393333E0,5.725289512E-1,3.662521053E0,5.190596724E0,6.378412358E0
9.960351333E0,1.842650610E-1,3.433474506E0,5.140529940E0,6.184476442E0
9.970308333E0,-8.638588697E-1,3.342096559E0,5.122241603E0,6.176829332E0
9.980265333E0,-1.750113745E0,3.456494409E0,5.145103047E0,6.440678309E0
9.990222333E0,-2.591293019E0,3.750733902E0,5.288617108E0,6.982282953E0
1.000018033E1,-2.743638130E0,3.619372110E0,5.375033108E0,7.036930124E0
1.001013733E1,-2.565037851E0,3.242531925E0,5.631792533E0,6.986452576E0
1.002009433E1,-1.935892650E0,2.673256364E0,6.243062797E0,7.061856202E0
1.003005133E1,-9.044479018E-1,2.118967803E0,7.163806304E0,7.525169188E0
1.004000933E1,-3.314570206E-1,1.767944244E0,8.296445889E0,8.489199315E0
1.004996633E1,-6.417295790E-1,1.373179420E0,8.192402873E0,8.331440656E0
1.005992292E1,-1.181538681E0,2.915415877E-1,6.523911581E0,6.636448784E0
1.006988092E1,-1.980444340E0,-1.681558650E0,4.773452851E0,5.434671231E0
1.007983792E1,-2.320839415E0,-3.627166448E0,4.689026658E0,6.366286440E0
1.008979492E1,-1.733332236E0,-6.503026496E0,4.544719715E0,8.120854114E0
1.009975192E1,1.636310556E0,-1.050126953E1,3.141858366E0,1.108266430E1
1.010970992E1,6.175998741E0,-1.476840613E1,-1.432035154E0,1.607169887E1
1.011966692E1,9.637778449E0,-1.723865126E1,-1.715324215E1,2.615896762E1
1.012962392E1,9.106373550E0,-1.062090824E1,-7.669927257E0,1.595485867E1
1.013958192E1,4.688094027E0,-3.516003277E0,-3.108634779E0,6.633559742E0
1.014953892E1,3.086386709E0,-3.681436211E0,-2.614349467E0,5.469330729E0
1.015949592E1,4.479439645E0,-5.419047439E0,-2.711865822E0,7.535626776E0
1.016945392E1,4.764278569E0,-5.146667762E0,-3.118170711E0,7.675254258E0
1.017941092E1,3.760563072E0,-3.379509383E0,-3.667739985E0,6.246217647E0
1.018936792E1,1.989323922E0,-1.433998649E0,-3.570703687E0,4.331707125E0
1.019932492E1,4.924408078E-2,-1.150924999E-1,-2.775882601E0,2.778703920E0
1.020928292E1,-1.583487979E0,6.923647124E-1,-2.175472956E0,2.778396238E0
1.021923992E1,-2.913694457E0,1.305309618E0,-1.889345305E0,3.709861759E0
1.022919692E1,-3.920221295E0,1.590246776E0,-2.027489575E0,4.691240112E0
1.023915392E1,-4.589229305E0,1.649412412E0,-2.147746044E0,5.328639600E0
1.024911192E1,-5.154045779E0,1.748937285E0,-1.913184696E0,5.769163301E0
1.025906892E1,-5.496279218E0,1.611561631E0,-1.464397738E0,5.911909748E0
1.026902592E1,-5.375083979E0,1.158713490E0,-1.264826567E0,5.642156589E0
1.027898392E1,-4.974867795E0,8.413669699E-1,-9.373156857E-1,5.131838720E0
1.028894092E1,-3.724729580E0,6.632046479E-1,-6.067627908E-1,3.831659162E0
1.029889792E1,-2.249415091E0,5.088861018E-1,-6.310632344E-1,2.391040385E0
1.030885492E1,-1.007638979E0,3.903016448E-3,-7.812967694E-1,1.275059288E0
1.031881292E1,3.464001650E-1,-2.505461740E-1,-9.320088990E-1,1.025381416E0
1.032876992E1,1.180216041E0,6.496841311E-1,-2.162985934E-1,1.364472226E0
1.033872692E1,9.421343762E-1,3.028295791E0,2.174283778E0,3.845218138E0
1.034868492E1,7.603309929E-1,5.696211308E0,5.517091212E0,7.966380730E0
1.035864192E1,1.301941622E0,8.046792001E0,7.472473217E0,1.105819920E1
1.036859892E1,2.511836960E0,9.591505339E0,7.667508264E0,1.253383351E1
1.037855592E1,3.691787537E0,1.071448357E1,6.922940195E0,1.327993051E1
1.038851392E1,5.077376502E0,1.094217298E1,4.434747037E0,1.285215480E1
1.039847092E1,3.517135298E0,9.040146232E0,2.118998647E0,9.928979800E0
1.040842792E1,1.386506394E0,6.541363766E0,2.981644365E0,7.321341613E0
1.041838592E1,7.136918467E-1,5.547465743E0,4.047008227E0,6.903767653E0
1.042834292E1,9.615711057E-1,6.826827757E0,4.394118243E0,8.175479885E0
1.043829992E1,1.254770379E0,9.254931419E0,4.107299452E0,1.020284828E1
1.044825692E1,7.567460650E-1,9.827359214E0,1.647817292E0,9.993245496E0
1.045821492E1,4.304552933E0,8.462961727E0,-2.333085823E-1,9.497648659E0
1.046817192E1,1.121635828E1,3.738712612E0,-9.973892777E0,1.546813506E1
1.047812892E1,8.714011931E0,-2.082822654E0,-9.844355900E0,1.331102916E1
1.048808692E1,4.530729666E0,-7.063027788E0,-1.804189672E0,8.583063160E0
1.049804392E1,5.606933096E0,-2.373423659E1,-1.101538597E1,2.675986572E1
1.050800092E1,8.467561147E0,-3.100233734E1,-6.343408619E0,3.275795087E1
1.051795792E1,5.941003237E0,-2.091379470E1,1.210966548E0,2.177495736E1
1.052791592E1,5.177738696E0,-1.656316921E1,5.164167309E-1,1.736128563E1
1.053787292E1,9.404112017E-1,-1.136934716E1,-1.456362494E0,1.150075736E1
1.054782992E1,-5.207138497E0,-5.631625303E0,-2.606806852E0,8.100921975E0
1.055778792E1,-7.820846232E0,-3.455780464E0,-2.903844237E0,9.029970419E0
1.056774492E1,-8.332002808E0,-3.759989460E0,-2.371829182E0,9.443800358E0
1.057770192E1,-7.250590094E0,-6.133711678E0,-1.727615413E-1,9.498595802E0
1.058765892E1,-5.507953768E0,-8.489308696E0,1.433194949E0,1.022056577E1
1.059761692E1,-5.302513016E0,-1.115167638E1,4.429876014E0,1.311870160E1
1.060757392E1,-6.927962953E0,-1.234323017E1,8.903713149E0,1.672208448E1
1.061753092E1,-9.158771034E0,-1.225248723E1,1.146465795E1,1.911661351E1
1.062748892E1,-8.188382328E0,-1.323575969E1,1.278011541E1,2.013867646E1
1.063744592E1,-4.735013840E0,-1.277487397E1,1.123777429E1,1.766084176E1
1.064740292E1,-1.643869252E0,-1.022360631E1,7.102141567E0,1.255646634E1
1.065735992E1,3.266628885E0,-8.144603639E0,-1.302281053E0,8.871379186E0
1.066731792E1,6.622479265E0,-4.522152970E0,-6.050508723E0,1.004568340E1
1.067727492E1,8.769671577E0,7.108401597E-2,-7.617125731E0,1.161605772E1
1.068723192E1,1.123888526E1,4.536663421E0,-4.549103957E0,1.294558626E1
1.069718992E1,1.075258637E1,7.768038273E0,-1.872218810E0,1.339648220E1
1.070714692E1,6.062831730E0,8.428340948E0,6.614475596E-1,1.040347887E1
1.071710392E1,-6.440444916E-1,8.891693028E0,-2.330432357E0,9.214548995E0
1.072706092E1,-3.489666249E0,7.941768991E0,-4.833210810E0,9.930226179E0
1.073701892E1,-3.403679434E0,7.023429274E0,-2.300278265E0,8.136637669E0
1.074697592E1,-3.237865262E0,7.102895858E0,1.861546472E0,8.024977028E0
1.075693292E1,-3.377004436E0,7.231538696E0,6.060738426E0,1.002156979E1
1.076689092E1,-3.624688398E0,7.085102196E0,8.377150329E0,1.155481228E1
1.077684792E1,-4.137763445E0,7.310356824E0,8.214926348E0,1.174935820E1
1.078680492E1,-3.906944607E0,6.719167653E0,6.167598631E0,9.922232763E0
1.079676292E1,-2.902328639E0,4.941154504E0,4.511499928E0,7.293294932E0
1.080671992E1,-1.888416182E0,2.929577833E0,3.432215016E0,4.891691106E0
1.081667692E1,-8.101030773E-1,1.393731798E0,2.665586572E0,3.115141585E0
1.082663392E1,3.829458475E-2,6.785991973E-1,2.559834999E0,2.648531398E0
1.083659192E1,-5.216570055E-1,1.122640847E0,2.726927372E0,2.994758988E0
1.084654892E1,-2.338521395E0,2.709604411E0,3.132038845E0,4.756080919E0
1.085650592E1,-3.308145871E0,3.224005607E0,3.158223846E0,5.595750094E0
1.086646292E1,-2.802369903E0,2.140908310E0,3.366171885E0,4.875231135E0
1.087642092E1,-1.107638061E0,-1.906823802E-1,4.661902009E0,4.795472051E0
1.088637792E1,1.290634276E0,-2.024732906E0,4.994420300E0,5.541616578E0
1.089633492E1,2.878777224E0,-3.056491649E0,5.238493606E0,6.713517317E0
1.090629292E1,3.633269187E0,-2.870518616E0,5.562824625E0,7.237785567E0
1.091624992E1,3.724239584E0,-1.770712316E0,6.151859096E0,7.406129416E0
1.092620692E1,3.141380941E0,-4.823584539E-1,6.311720803E0,7.066736403E0
1.093616392E1,2.529462222E0,6.845791447E-1,6.342684149E0,6.862686788E0
1.094612192E1,3.202632279E0,2.035612820E0,5.722931914E0,6.866769456E0
1.095607892E1,3.179898305E0,1.871542872E0,4.385362623E0,5.731128273E0
1.096603592E1,1.173356672E0,-5.401529181E-1,5.130863907E0,5.290963569E0
1.097599392E1,7.761003488E-1,-9.861680031E-2,5.742537628E0,5.795584133E0
1.098595092E1,8.943819201E-1,1.929086491E0,5.494743154E0,5.891816022E0
1.099590792E1,4.204984206E-1,3.080348874E0,4.756883011E0,5.682719779E0
1.100586492E1,6.442929983E-1,4.248185774E0,2.424287184E0,4.933494116E0
1.101582292E1,1.231970916E0,5.020922220E0,-4.306801772E-1,5.187764228E0
1.102577992E1,1.188181702E0,4.520308759E0,-2.412065919E0,5.259565479E0
1.103573692E1,1.538570253E0,2.222074680E0,-3.378680248E0,4.326695567E0
1.104569492E1,1.812576626E0,-1.186845029E0,-4.040992611E0,4.585156097E0
1.105565192E1,1.871292611E0,-4.602140542E0,-4.605314995E0,6.774242379E0
1.106560554E1,3.239469738E0,-7.878284016E0,-3.414517833E0,9.177170329E0
1.107556354E1,4.752204069E0,-1.249248035E1,-1.960175698E0,1.350880444E1
1.108552054E1,5.919893619E0,-1.631786448E1,-5.072202301E-1,1.736591818E1
1.109547754E1,5.066664988E0,-1.367137375E1,2.166239910E-1,1.458164875E1
1.110543454E1,5.300479939E0,-1.110397362E1,-3.090779722E-1,1.230808056E1
1.111539254E1,8.087036632E0,-9.551958280E0,-6.319892871E-1,1.253153937E1
1.112534954E1,9.674386112E0,-7.350554093E0,-8.936752841E-1,1.218289980E1
1.113530654E1,8.586357858E0,-3.360381972E0,-1.605619106E0,9.359258570E0
1.114526354E1,6.690114593E0,5.321615285E-1,-2.753759368E0,7.254241505E0
1.115522154E1,5.992450549E0,3.129662536E0,-5.125827116E0,8.484005822E0
1.116517854E1,5.259133692E0,4.724237421E0,-9.015107870E0,1.145639892E1
1.117513554E1,4.058778672E0,6.048672697E0,-1.075137833E1,1.298661856E1
1.118509354E1,4.317707414E0,7.298060129E0,-9.158948790E0,1.248161135E1
1.119505054E1,4.582758776E0,7.982277331E0,-7.303724327E0,1.175001355E1
1.120500754E1,2.973265890E0,6.769689935E0,-9.534448793E0,1.206543516E1
1.121496554E1,4.211661726E-1,4.455391216E0,-9.106929621E0,1.014712072E1
1.122492254E1,-1.897269452E0,2.480584177E0,-6.577438747E0,7.281183263E0
1.123487954E1,-3.783362535E0,1.094975916E0,-4.197447730E0,5.755985734E0
1.124483654E1,-5.110779891E0,1.175015527E-1,-1.918393103E0,5.460229831E0
1.125479454E1,-5.183349684E0,-4.241283721E-1,5.466380650E-1,5.229322327E0
1.126475154E1,-5.059412102E0,-3.232715034E-1,1.960835995E0,5.435718267E0
1.127470854E1,-5.677190316E0,-6.987060177E-1,1.470117484E0,5.905922908E0
1.128466654E1,-5.489445577E0,-5.888292342E-1,1.831291809E0,5.816731238E0
1.129462354E1,-5.100029785E0,2.799366188E-1,1.279975387E0,5.265643865E0
1.130458054E1,-5.528489774E0,1.071840237E0,-9.960316712E-1,5.718839023E0
1.131453754E1,-5.783937669E0,9.119142115E-1,-2.843814383E0,6.509439510E0
1.132449554E1,-5.770886684E0,4.722854555E-2,-3.389662489E0,6.692919800E0
1.133445254E1,-5.208958150E0,-1.114391595E-1,-2.841165009E0,5.934465629E0
1.134440954E1,-4.270216329E0,3.914839518E-1,-2.289710300E0,4.861150115E0
1.135436754E1,-3.443222399E0,5.852811438E-1,-1.938781759E0,3.994647571E0
1.136432454E1,-3.075675194E0,6.203697002E-1,-1.600883446E0,3.522423068E0
1.137428154E1,-2.439187644E0,7.108255416E-1,-1.138339744E0,2.784012695E0
1.138423854E1,-1.040627800E0,8.509786230E-1,-5.210152736E-1,1.441710009E0
1.139419654E1,1.120697232E0,1.399107143E0,5.960020137E-1,1.889095415E0
1.140415354E1,4.253190991E0,2.402330305E0,2.174054421E0,5.346712740E0
1.141411054E1,7.676436378E0,3.293806159E0,2.956047594E0,8.860871958E0
1.142406854E1,1.082592916E1,3.940778351E0,3.347999615E0,1.199748214E1
1.143402554E1,1.202997261E1,4.898236526E0,3.850189193E0,1.354757981E1
1.144398254E1,1.010328932E1,4.110009052E0,3.800309520E0,1.155036718E1
1.145393954E1,7.042423954E0,2.545897576E0,3.108690036E0,8.108099861E0
1.146389754E1,5.167205522E0,2.313484787E0,1.806685556E0,5.942755040E0
1.147385454E1,4.193419583E0,2.334141830E0,3.920733511E-2,4.799429455E0
1.148381154E1,4.297618720E0,1.469579540E0,-2.145722907E0,5.023277564E0
1.149376954E1,7.805073953E0,-2.423614170E0,-2.588375843E0,8.572792693E0
1.150372654E1,1.116888239E1,-5.110323223E0,-1.661649465E0,1.239437035E1
1.151368354E1,8.526033304E0,-6.743762212E0,-3.567480994E0,1.144108794E1
1.152364054E1,4.524386022E0,-6.574116944E0,-7.904160869E-1,8.019591016E0
1.153359854E1,2.617812481E0,-4.184876216E0,2.128979405E0,5.375749663E0
1.154355554E1,9.031925046E-1,-1.987815925E0,2.876069378E0,3.610947787E0
1.155351254E1,-3.206935245E0,-2.931831350E0,-3.418633103E0,5.528754022E0
1.156347054E1,-5.692386060E0,-2.328472955E0,-5.275207103E0,8.102644959E0
1.157342754E1,-5.035725616E0,-6.402964264E-1,-3.466742824E0,6.147098324E0
1.158338454E1,-3.910544153E0,-2.624604607E-1,-3.087375473E0,4.989301392E0
1.159334154E1,-3.297812671E0,-8.282195055E-1,-3.813052942E0,5.108902886E0
1.160329954E1,-1.749632519E0,-2.587674177E0,-4.042709938E0,5.108891782E0
1.161325654E1,3.604217881E-1,-4.443182815E0,-3.681179810E0,5.781250919E0
1.162321354E1,1.913406597E0,-5.066276148E0,-2.815466496E0,6.103698093E0
1.163317154E1,2.440023796E0,-4.369298567E0,-1.929142624E0,5.363401659E0
1.164312854E1,2.164372017E0,-2.873365041E0,-1.662558122E0,3.962932298E0
1.165308554E1,1.586881703E0,-1.446691200E0,-1.438050477E0,2.584395121E0
1.166304354E1,4.734414500E-1,-3.570567155E-1,-1.406083164E0,1.526009885E0
1.167300054E1,-7.875486124E-1,1.958875716E-2,-1.794480663E0,1.959790138E0
1.168295754E1,-1.314239486E0,2.499877650E-1,-2.467385842E0,2.806726242E0
1.169291454E1,-1.894513659E0,3.841000879E-1,-2.884681742E0,3.472478025E0
1.170287254E1,-1.924131560E0,-4.282144064E-1,-2.008495188E0,2.814196645E0
1.171282954E1,-1.625079809E0,-1.467699661E0,-9.590702516E-1,2.390573661E0
1.172278654E1,-1.438716767E0,-2.580679738E0,-7.964846197E-1,3.060098298E0
1.173274454E1,-9.931033856E-1,-3.661731094E0,-4.335543761E-1,3.818703751E0
1.174270154E1,-1.477037664E0,-4.219389406E0,2.757985443E-1,4.478945418E0
1.175265854E1,-2.641258062E0,-4.013011930E0,1.759646168E0,5.116333016E0
1.176261554E1,-4.562287089E0,-3.520598604E0,3.584408099E0,6.786535157E0
1.177257354E1,-6.189464879E0,-3.106276013E0,4.029729120E0,8.012311959E0
1.178253054E1,-6.813800746E0,-2.837392970E0,3.836038347E0,8.318285260E0
1.179248754E1,-6.479135942E0,-2.815304528E0,3.654533172E0,7.953662983E0
1.180244554E1,-5.497279676E0,-2.288836434E0,2.476581173E0,6.449210057E0
1.181240254E1,-4.425293843E0,-1.660644913E0,7.280701500E-1,4.782369002E0
1.182235954E1,-2.974648172E0,-1.321324557E0,-1.179042504E0,3.461873995E0
1.183231754E1,-1.812757305E0,-4.800704384E-1,-4.293680620E-1,1.923775872E0
1.184227454E1,-3.055801678E-1,1.230291011E0,1.023239350E0,1.629114477E0
1.185223154E1,2.738868556E0,3.375101752E0,2.455868581E-1,4.353507288E0
1.186218854E1,6.405780868E0,5.164839739E0,-7.485272187E-1,8.262559594E0
1.187214654E1,7.924257749E0,4.912004380E0,-2.044188054E-1,9.325418755E0
1.188210354E1,4.766299075E0,4.063973923E0,1.058107321E0,6.352407576E0
1.189206054E1,1.515638351E0,3.536815857E0,2.199263961E0,4.432041063E0
1.190201854E1,3.330802077E-1,3.314734513E0,3.153548412E0,4.587294944E0
1.191197554E1,-1.533093166E-1,3.158353069E0,3.603774077E0,4.794359755E0
1.192193254E1,-1.427533382E-1,3.074322149E0,3.817783924E0,4.903805592E0
1.193188954E1,-3.309114754E-2,3.107630813E0,3.575669435E0,4.737496829E0
1.194184754E1,2.443650824E-1,2.846280738E0,3.176626203E0,4.272233885E0
1.195180454E1,8.209233499E-1,2.606466544E0,2.656715176E0,3.811262063E0
1.196176154E1,1.472444676E0,3.704801685E0,2.150319403E0,4.529627179E0
1.197171954E1,6.298454055E-1,2.945957639E0,2.909293842E0,4.188002185E0
1.198167654E1,1.027839063E0,1.683495832E0,3.049673796E0,3.631958372E0
1.199163354E1,6.419944578E-1,2.872241791E0,2.738763306E0,4.020292805E0
1.200159054E1,-1.824331284E-4,3.636851192E0,2.814337399E0,4.598606487E0
1.201154854E1,-4.001787615E-1,3.065627339E0,3.379346831E0,4.580196396E0
1.202150554E1,-4.644583726E-1,1.988341590E0,3.440547298E0,4.000823611E0
1.203146254E1,3.599750608E-2,3.225850403E-1,2.960364593E0,2.978106018E0
1.204142054E1,3.284170532E-1,-1.772898005E0,2.798031853E0,3.328664500E0
1.205137754E1,5.907050210E-1,-2.747775035E0,3.770130286E0,4.702454938E0
1.206133417E1,1.417647495E0,-1.834086778E0,5.186175059E0,5.680669896E0
1.207129117E1,2.577045109E0,-8.492963791E-1,5.665997576E0,6.282196619E0
1.208124917E1,3.776000306E0,1.145292376E0,4.807081357E0,6.219156222E0
1.209120617E1,4.279042116E0,1.410534357E0,4.165052401E0,6.135753426E0
1.210116317E1,2.865944047E0,1.133148293E0,3.158918495E0,4.413210441E0
1.211112117E1,3.010430208E0,1.607576753E0,3.102903339E0,4.612483299E0
1.212107817E1,4.579738689E0,2.106294547E0,3.581459348E0,6.183634388E0
1.213103517E1,4.205181257E0,1.665193462E0,3.674874465E0,5.827617095E0
1.214099317E1,4.026882110E0,1.699570413E0,3.766114419E0,5.769569909E0
1.215095017E1,3.880910172E0,2.598283365E0,3.963766680E0,6.125682534E0
1.216090717E1,3.214982184E0,3.490363237E0,3.479238324E0,5.884203029E0
1.217086417E1,2.969438595E0,4.014422278E0,2.453061333E0,5.563331888E0
1.218082217E1,3.398454947E0,3.995705341E0,1.064121913E0,5.352337120E0
1.219077917E1,3.516538882E0,3.651789658E0,-6.706171632E-1,5.113838167E0
1.220073617E1,2.836721710E0,3.035168608E0,-2.744464341E0,4.979088577E0
1.221069417E1,2.153959295E0,1.556292579E0,-5.067782975E0,5.722238332E0
1.222065117E1,2.374378275E0,-1.084494197E0,-5.798571496E0,6.359027540E0
1.223060817E1,3.654174737E0,-3.783566603E0,-3.953010727E0,6.579868012E0
1.224056517E1,4.503324351E0,-5.952814613E0,-1.646807916E0,7.643815038E0
1.225052317E1,3.751144962E0,-6.995197163E0,-1.234561086E0,8.032933022E0
1.226048017E1,1.909692446E0,-7.306242723E0,-1.213633755E0,7.648595613E0
1.227043717E1,8.527766418E-1,-6.429260362E0,-5.171698523E-1,6.506157196E0
1.228039517E1,1.068394473E0,-6.266099072E0,-5.048655564E-1,6.376547150E0
1.229035217E1,1.841201670E0,-7.247006335E0,1.465654305E-1,7.478676744E0
1.230030917E1,2.529279204E0,-7.427650800E0,9.692552242E-1,7.906118225E0
1.231026717E1,3.130714450E0,-5.229214659E0,1.224812754E0,6.216608819E0
1.232022417E1,2.800428627E0,-2.231788659E0,6.773148564E-1,3.644452844E0
1.233018117E1,2.268045489E0,5.277229071E-2,-1.216343647E-1,2.271917731E0
1.234013817E1,2.374590529E0,1.919200603E0,-1.265015578E0,3.304886617E0
1.235009617E1,2.631439417E0,3.547456620E0,-3.872041408E0,5.873808521E0
1.236005317E1,2.186888475E0,6.083464215E0,-9.995313467E0,1.190366789E1
1.237001017E1,2.452650273E0,7.563576930E0,-1.153494850E1,1.400993313E1
1.237996817E1,3.048279235E0,6.051558883E0,-7.588318253E0,1.017329569E1
1.238992517E1,1.219976522E0,4.702552437E0,-5.068324428E0,7.020701863E0
1.239988217E1,-6.394591051E-1,3.244462675E0,-5.652249602E0,6.548539651E0
1.240983917E1,-2.335748060E0,1.594915777E0,-5.073060672E0,5.808220031E0
1.241979717E1,-3.655773366E0,3.645025599E-1,-3.163706488E0,4.848358460E0
1.242975417E1,-4.399922190E0,-4.725251913E-1,-1.487750055E0,4.668618164E0
1.243971117E1,-4.555268092E0,-7.200612187E-1,-1.664684755E-1,4.614831232E0
1.244966917E1,-4.742258540E0,-8.073648262E-1,9.313813466E-1,4.899829102E0
1.245962617E1,-5.438043289E0,-7.820189005E-1,1.336420021E0,5.654191971E0
1.246958317E1,-6.176567675E0,-5.978128964E-1,1.689949696E0,6.431430516E0
1.247954117E1,-6.370064905E0,-7.277678490E-1,1.053639024E0,6.497501684E0
1.248949817E1,-6.282170144E0,-4.637350720E-1,2.366084585E-1,6.303704903E0
1.249945517E1,-5.556679201E0,5.247501826E-1,-6.027371290E-1,5.613852380E0
1.250941217E1,-4.171989537E0,1.062028610E0,-1.099242629E0,4.443167319E0
1.251937017E1,-3.208253208E0,1.548727452E0,-1.059659318E0,3.716762467E0
1.252932717E1,-2.578932590E0,1.747973664E0,-4.876595396E-1,3.153429412E0
1.253928417E1,-2.075235307E0,1.650554373E0,-2.059038520E-2,2.651670282E0
1.254924217E1,-1.117209953E0,1.503656529E0,2.186747557E-1,1.885990372E0
1.255919917E1,8.038372010E-1,1.255715289E0,2.568693531E-1,1.512929938E0
1.256915617E1,4.003535348E0,1.018814178E0,-1.049304484E0,4.262313633E0
1.257911317E1,8.353462089E0,1.091233113E0,-3.577596678E0,9.152612554E0
1.258907117E1,1.089141096E1,3.033103956E0,-5.630547076E-1,1.131987557E1
1.259902817E1,1.117725677E1,4.429287491E0,2.675214012E0,1.231691628E1
1.260898517E1,9.398098741E0,3.594051327E0,3.873674535E0,1.078178182E1
1.261894317E1,6.386414890E0,2.593193949E0,3.978229183E0,7.958470797E0
1.262890017E1,4.021247733E0,1.886564954E0,3.213898110E0,5.482581665E0
1.263885717E1,2.065302057E0,1.121054497E0,2.134478127E0,3.174623229E0
1.264881417E1,5.407224369E-1,3.482917392E-1,1.273767398E0,1.426944734E0
1.265877217E1,-2.422899055E-1,9.546573579E-2,6.895551252E-1,7.370918367E-1
1.266872917E1,-4.655336756E-1,1.621508914E-1,-3.323148072E-2,4.940838451E-1
1.267868617E1,-5.278655791E-1,4.923887676E-1,-1.582881623E0,1.739713482E0
1.268864417E1,1.029232746E0,-1.026589805E0,-3.536560333E0,3.823671752E0
1.269860117E1,5.113009434E0,-4.235893757E0,4.333085006E-1,6.653827294E0
1.270855817E1,5.258996283E0,-5.799294212E0,3.174424726E0,8.447829757E0
1.271851617E1,3.704510493E0,-6.658093486E0,6.651073319E-1,7.648266119E0
1.272847317E1,2.235787570E0,-4.956479471E0,-2.579443052E0,6.018219111E0
1.273843017E1,9.470629942E-1,-1.695821763E0,-1.811814149E0,2.656202228E0
1.274838717E1,2.413335350E0,4.801464522E-1,1.672591652E0,2.975279980E0
1.275834517E1,2.783029068E0,2.266433412E-1,-5.447441518E-1,2.844883862E0
1.276830217E1,7.599801600E-1,-1.049297467E0,-4.352441629E0,4.541183012E0
1.277825917E1,-1.259890201E0,-2.141903506E0,-5.248530936E0,5.807077659E0
1.278821717E1,-2.929580172E0,-2.651000692E0,-4.994468831E0,6.368277912E0
1.279817417E1,-3.261075785E0,-2.584079309E0,-3.852100648E0,5.670164068E0
1.280813117E1,-2.924573786E0,-2.919998340E0,-3.197344642E0,5.225182762E0
1.281808917E1,-2.406090065E0,-3.059581318E0,-3.135251890E0,4.998010770E0
1.282804617E1,-1.157380325E0,-3.288765274E0,-3.017400966E0,4.610880050E0
1.283800317E1,-4.077374572E-1,-3.368837630E0,-2.348618951E0,4.126902930E0
1.284796017E1,1.581999278E-1,-3.468372443E0,-1.258375772E0,3.692985812E0
1.285791817E1,4.572581112E-1,-3.369198988E0,-5.063770616E-1,3.437587021E0
1.286787517E1,8.714397848E-2,-3.035025351E0,-4.391182941E-1,3.067865354E0
1.287783217E1,-9.149342984E-1,-2.417806131E0,-9.950277042E-1,2.770012886E0
1.288779017E1,-2.177462178E0,-1.821601219E0,-1.851266775E0,3.389212476E0
1.289774717E1,-3.104220716E0,-1.455857880E0,-2.530609153E0,4.261418908E0
1.290770417E1,-3.421349135E0,-1.261284762E0,-2.410124351E0,4.370945955E0
1.291766117E1,-3.600835851E0,-1.589262689E0,-1.489646015E0,4.208422504E0
1.292761917E1,-3.370180736E0,-2.020032914E0,-6.882242990E-1,3.989022919E0
1.293757617E1,-3.219261176E0,-2.121907198E0,-2.121784991E-1,3.861496134E0
1.294753317E1,-4.241419961E0,-2.329138368E0,1.455519618E0,5.053025448E0
1.295749117E1,-5.687725829E0,-2.472089342E0,3.641733617E0,7.191917307E0
1.296744817E1,-5.231665812E0,-1.789689454E0,4.220279353E0,6.955866109E0
1.297740517E1,-4.665713224E0,-1.685705495E-1,6.144009794E0,7.716615338E0
1.298736317E1,-4.759082733E0,-4.028731585E-2,8.221079957E0,9.499297195E0
1.299732017E1,-3.874041740E0,-5.653076398E-1,6.050150288E0,7.206392346E0
1.300727717E1,-2.781214092E0,-1.257908580E0,2.380117610E0,3.870716427E0
1.301723417E1,-2.028855193E0,-1.598139347E0,5.643615603E-2,2.583309468E0
1.302719217E1,-1.144200701E-1,-1.214841498E0,-8.244112140E-1,1.472611852E0
1.303714917E1,3.287782357E0,3.452260441E-1,-1.321647323E0,3.560259190E0
1.304710617E1,5.591846110E0,2.815142561E0,-2.828064030E0,6.869622749E0
1.305706417E1,6.605128822E0,5.181468635E0,-4.941864941E0,9.741528271E0
1.306702517E1,6.067710062E0,5.812728190E0,-1.976198677E0,8.631933480E0
1.307698217E1,2.994394804E0,5.143296842E0,1.732804671E0,6.198589733E0
1.308693917E1,2.037479836E-1,4.297848516E0,2.505272291E0,4.978895897E0
1.309689717E1,-3.033529633E-1,3.080890326E0,2.077937598E0,3.728502767E0
1.310685417E1,-1.432848501E-1,2.341115220E0,1.827937846E0,2.973669079E0
1.311681117E1,3.850449979E-2,1.927039381E0,2.470421131E0,3.133359848E0
1.312676917E1,-6.523153782E-2,1.668138120E0,2.969246514E0,3.406371207E0
1.313672617E1,-1.411190414E-1,1.461879342E0,2.928413653E0,3.276066592E0
1.314668317E1,3.249999404E-2,1.723738124E0,2.978855828E0,3.441788985E0
1.315664117E1,4.298106962E-1,2.517999340E0,3.156507103E0,4.060615102E0
1.316659817E1,6.323091298E-1,3.289380986E0,3.594774628E0,4.913476033E0
1.317655517E1,3.679535866E-1,3.372621363E0,3.739183897E0,5.048906904E0
1.318651217E1,2.688982451E-1,3.117924251E0,3.078556117E0,4.389904973E0
1.319647017E1,2.583867055E-1,2.752828783E0,2.573588235E0,3.777325297E0
1.320642717E1,2.146840310E-1,2.386234674E0,2.362572162E0,3.364810898E0
1.321638417E1,1.608259124E-1,1.860290490E0,2.655258050E0,3.246065464E0
1.322634217E1,5.099994117E-1,7.983425725E-1,2.830034834E0,2.984383927E0
1.323629917E1,1.147005610E0,-4.939593297E-1,2.757667354E0,3.027267237E0
1.324625617E1,1.105637729E0,-1.340288832E0,2.628528088E0,3.150867952E0
1.325621417E1,1.104157798E0,-1.373989844E0,2.761491433E0,3.276102482E0
1.326617117E1,1.300254408E0,-8.097007889E-1,3.428411987E0,3.755034706E0
1.327612817E1,1.821907613E0,7.871346295E-2,4.355116146E0,4.721501859E0
1.328608517E1,2.171593328E0,9.014313233E-1,5.095915099E0,5.612196247E0
1.329604317E1,2.415576587E0,1.568847136E0,5.346979337E0,6.073424044E0
1.330600017E1,2.133239979E0,2.432872066E0,4.093788875E0,5.218111407E0
1.331595717E1,3.278132113E0,2.637742715E0,4.116090156E0,5.886088256E0
1.332591517E1,2.674342777E0,1.705891837E0,3.804956303E0,4.953773180E0
1.333587217E1,2.832193626E0,1.491035314E0,3.631463567E0,4.840664694E0
1.334582917E1,3.395074672E0,2.660387812E0,3.677372981E0,5.668092040E0
1.335578717E1,2.849658090E0,3.969644301E0,3.229926497E0,5.857563682E0
1.336574417E1,2.326541035E0,5.038541050E0,1.906976999E0,5.868240824E0
1.337570117E1,2.003939622E0,5.633295268E0,-2.763401426E-2,5.979176634E0
1.338565817E1,1.782393883E0,5.215749106E0,-2.380336003E0,6.003912573E0
1.339561617E1,1.334814668E0,3.461822977E0,-4.409089454E0,5.762466342E0
1.340557317E1,1.040682764E0,3.680635142E-1,-4.274154428E0,4.414395479E0
1.341553017E1,2.341315779E0,-3.558768058E0,-2.274147205E0,4.828906210E0
1.342548817E1,4.914449100E0,-8.315447586E0,-5.810921985E-1,9.676577218E0
1.343544517E1,6.322140541E0,-1.331936318E1,3.829774225E-1,1.474861242E1
1.344540217E1,4.058928945E0,-1.230080160E1,1.168825518E0,1.300579783E1
1.345535917E1,9.538212061E-1,-8.661327349E0,8.789017090E-1,8.757901264E0
1.346531717E1,-4.160539520E-1,-7.439947495E0,4.764065731E-1,7.466785308E0
1.347527417E1,6.222659522E-1,-6.776409556E0,4.334584817E-1,6.818711582E0
1.348523117E1,2.273454164E0,-5.642669524E0,7.511210436E-1,6.129640774E0
1.349518917E1,2.951278020E0,-3.902023006E0,9.278104520E-1,4.979624256E0
1.350514617E1,2.806749467E0,-1.985778170E0,5.309976402E-1,3.478953292E0
1.351510317E1,2.325799023E0,1.103954315E-3,-5.780645102E-1,2.396560221E0
1.352506117E1,1.648214318E0,1.828934796E0,-2.613451627E0,3.590507253E0
1.353501817E1,1.741834087E0,3.340642941E0,-6.413276414E0,7.438010191E0
1.354497517E1,1.902727827E0,5.346294628E0,-1.046118453E1,1.190124452E1
1.355493217E1,3.579729742E-1,6.316523121E0,-8.258154813E0,1.040306349E1
1.356489017E1,-3.042627901E-1,4.690688437E0,-5.790283653E0,7.458050592E0
1.357484717E1,-6.574773002E-1,2.908298646E0,-4.929077665E0,5.760753774E0
1.358480417E1,-1.129537053E0,1.799798706E0,-4.478185417E0,4.956740256E0
1.359476217E1,-2.393882833E0,1.121397729E0,-3.084220900E0,4.062096311E0
1.360471917E1,-3.189634504E0,-3.435239196E-2,-1.394418261E0,3.481285774E0
1.361467617E1,-3.785313751E0,-9.169656211E-1,8.462090492E-2,3.895713907E0
1.362463417E1,-3.786498982E0,-8.744534397E-1,1.817048869E0,4.289977849E0
1.363459117E1,-3.701361183E0,-3.934953940E-1,2.086020496E0,4.266895211E0
1.364454817E1,-4.299317336E0,2.626633590E-1,3.883030665E-1,4.324800674E0
1.365450517E1,-4.849258493E0,4.647179890E-1,-2.862551200E-1,4.879878353E0
1.366446317E1,-5.053680661E0,-8.252760172E-2,-1.256743230E0,5.208253313E0
1.367442017E1,-5.442093655E0,-5.776031649E-1,-1.845088314E0,5.775323337E0
1.368437717E1,-5.604010658E0,-4.852884936E-1,-1.883190526E0,5.931850211E0
1.369433517E1,-5.333852338E0,-2.987120283E-1,-2.033264286E0,5.716062744E0
1.370429217E1,-4.864338462E0,-1.718110764E-1,-1.996092659E0,5.260769300E0
1.371424917E1,-4.304419616E0,1.777302128E-1,-1.969180849E0,4.736801608E0
1.372420617E1,-3.690009398E0,5.689311594E-1,-1.682140740E0,4.095051830E0
1.373416417E1,-3.255518006E0,6.446210271E-1,-1.392468799E0,3.599014186E0
1.374412117E1,-1.998017562E0,7.311007619E-1,-1.220787531E0,2.452937973E0
1.375407817E1,-3.572257000E-1,1.170195667E0,-1.144970194E0,1.675686380E0
1.376403617E1,1.647159480E0,1.838227192E0,-3.673723733E-1,2.495431029E0
1.377399317E1,3.843412271E0,2.803491983E0,1.315943949E0,4.935898465E0
1.378395017E1,6.897326467E0,3.429334093E0,2.843749478E0,8.210989941E0
1.379390817E1,1.088479074E1,3.230642197E0,4.296500732E0,1.213983678E1
1.380386517E1,1.204458831E1,3.875224632E0,5.201320517E0,1.368002955E1
1.381382217E1,7.857843904E0,2.853219629E0,4.754416655E0,9.617226773E0
1.382377917E1,3.981550986E0,1.181809992E-1,4.446740553E0,5.969942759E0
1.383373717E1,2.099010086E0,-5.801180524E-1,3.946886353E0,4.507803476E0
1.384369417E1,8.209864998E-1,-5.413001418E-1,3.074408103E0,3.227849107E0
1.385365117E1,1.323540652E-1,-4.474587625E-1,1.720675938E0,1.782824339E0
1.386360917E1,1.244468755E-1,5.059431982E-1,-1.081278813E-1,5.321251576E-1
1.387356617E1,2.681597418E-1,1.598897731E0,-1.676925901E0,2.332480242E0
1.388352317E1,3.666152174E0,-1.079553884E0,-2.620596925E0,4.633965537E0
1.389348117E1,7.460617987E0,-4.210357212E0,-1.287322998E-1,8.567642652E0
1.390343817E1,7.436304680E0,-5.543424733E0,-7.172478309E-1,9.302829113E0
1.391339517E1,5.919325855E0,-7.312936031E0,-7.184532344E-1,9.435763192E0
1.392335317E1,2.608712459E0,-5.907049626E0,-1.697681762E0,6.676880959E0
1.393331017E1,5.948986441E-1,-3.467866659E0,-2.899468473E0,4.559267594E0
1.394326717E1,2.040247908E0,-1.945516582E0,7.929876924E-2,2.820272077E0
1.395322417E1,8.856760007E-1,-6.564283097E-1,1.343596601E-1,1.110573105E0
1.396318217E1,-1.772032033E0,-1.289424487E0,-3.023421552E0,3.734138577E0
1.397313917E1,-3.067826477E0,-2.256238791E0,-4.025572042E0,5.541426083E0
1.398309617E1,-3.979242505E0,-2.532536688E0,-3.954857862E0,6.155405243E0
1.399305417E1,-4.956399949E0,-2.459407901E0,-3.819595392E0,6.723384314E0
1.400301117E1,-5.224395969E0,-2.731128012E0,-4.154334747E0,7.211925585E0
1.401296817E1,-4.130012961E0,-3.400818391E0,-3.604528660E0,6.450984394E0
1.402292517E1,-2.960444115E0,-3.913569503E0,-2.437085570E0,5.479018314E0
1.403288317E1,-2.017047325E0,-4.406816642E0,-1.418909909E0,5.049932490E0
1.404284017E1,-9.907802868E-1,-4.897098657E0,-3.209332019E-1,5.006617517E0
1.405279717E1,-1.789382476E-1,-4.587029582E0,1.888334906E-1,4.594400654E0
1.406275117E1,-1.368973517E-1,-3.439368500E0,2.468978038E-1,3.450935393E0
1.407270817E1,-1.371604180E0,-2.469532354E0,9.903604567E-2,2.826605069E0
1.408266517E1,-2.426269975E0,-1.874183475E0,-4.059932327E-1,3.092600879E0
1.409262317E1,-3.448969043E0,-1.378784561E0,-7.181751993E-1,3.783148152E0
1.410258017E1,-3.641259992E0,-1.285721446E0,-4.258480382E-1,3.884996849E0
1.411253717E1,-3.627075816E0,-1.459835740E0,-2.142910981E-1,3.915701730E0
1.412249417E1,-3.796108881E0,-2.049268992E0,4.325773063E-1,4.335558691E0
1.413245217E1,-4.904401830E0,-2.671354850E0,1.243990160E0,5.721608651E0
1.414240917E1,-5.766942737E0,-3.476995917E0,2.253087434E0,7.100952903E0
1.415236617E1,-5.430319701E0,-3.967872595E0,3.691318005E0,7.671910688E0
1.416232417E1,-4.271641880E0,-3.643036376E0,3.874251655E0,6.821177631E0
1.417228117E1,-3.384762522E0,-2.870181232E0,3.084048699E0,5.404249626E0
1.418223817E1,-2.958501086E0,-1.655836748E0,2.847089408E0,4.427238655E0
1.419219617E1,-1.810320770E0,-1.446490055E-1,3.402291013E0,3.856652533E0
1.420215317E1,-1.560563385E-2,1.248446031E0,3.280506667E0,3.510069090E0
1.421211017E1,2.003033888E0,3.123071555E0,2.388732020E0,4.412681878E0
1.422206817E1,4.618691670E0,4.979097086E0,-2.107489426E0,7.110923443E0
1.423202517E1,6.282137985E0,6.360991196E0,-7.496301205E0,1.166713326E1
1.424198217E1,4.300397317E0,4.549982209E0,-3.352859529E0,7.101930878E0
1.425193917E1,9.189104050E-1,3.649843705E0,3.993747693E-1,3.784871941E0
1.426189717E1,1.541372824E-1,3.783405220E0,1.001895844E0,3.916849326E0
1.427185417E1,1.138913063E0,3.458407034E0,8.251203351E-1,3.733433506E0
1.428181117E1,1.924967712E0,2.870506337E0,1.115139966E0,3.631644871E0
1.429176917E1,1.777551219E0,2.660217074E0,1.842682039E0,3.692143052E0
1.430172617E1,1.001476598E0,2.857885707E0,2.222033749E0,3.756048465E0
1.431168317E1,2.225941443E-1,2.716773098E0,2.414072683E0,3.641174417E0
1.432164117E1,-5.903921950E-1,2.216235065E0,2.769786878E0,3.596106250E0
1.433159817E1,-1.190955037E0,1.877593571E0,3.379309993E0,4.045178309E0
1.434155517E1,-1.298935568E0,2.031854814E0,3.961455275E0,4.637757594E0
1.435151217E1,-1.189241218E0,2.512947346E0,4.006271260E0,4.876413482E0
1.436147017E1,-1.296237663E0,2.473309656E0,3.420407149E0,4.415504251E0
1.437142717E1,-1.766764276E0,1.826842078E0,2.559292377E0,3.606769393E0
1.438138417E1,-1.996068685E0,7.512280476E-1,2.301730714E0,3.137928943E0
1.439134217E1,-1.888623174E0,7.215604448E-1,1.918243414E0,2.786970535E0
1.440129917E1,-1.811759185E0,7.420438260E-1,2.476608070E0,3.157006164E0
1.441125617E1,-1.801067551E0,1.317670047E-1,3.551408168E0,3.984182080E0
1.442121417E1,-1.388907260E0,-6.414611918E-1,3.943601972E0,4.229956542E0
1.443117117E1,-3.817062378E-1,-1.562832690E0,3.672582357E0,4.009489598E0
1.444112817E1,6.076198465E-1,-2.103655114E0,3.506494535E0,4.134013866E0
1.445108517E1,1.515212381E0,-1.823108631E0,3.240808750E0,4.015275208E0
1.446104317E1,2.043334068E0,-8.266220462E-1,3.159226059E0,3.852171779E0
1.447100017E1,1.806855710E0,7.953932369E-1,3.263692414E0,3.814323810E0
1.448095717E1,4.220732512E0,2.203365344E0,3.241284714E0,5.759802807E0
1.449091517E1,5.622892486E0,2.123900514E0,3.093914999E0,6.760191072E0
1.450087217E1,4.592114321E0,1.582736612E0,2.787297535E0,5.600142558E0
1.451082917E1,4.207465764E0,2.108257458E0,3.380285894E0,5.794294641E0
1.452078717E1,2.745254885E0,3.306509235E0,3.874015428E0,5.785967788E0
1.453074417E1,1.387496327E0,3.960403946E0,3.767393789E0,5.639432723E0
1.454070117E1,1.046375613E0,4.133121341E0,2.848868131E0,5.127732790E0
1.455065817E1,1.008086291E0,4.072847657E0,1.532620711E0,4.466906340E0
1.456061617E1,1.101726526E0,3.839600471E0,1.069104179E-1,3.995968337E0
1.457057317E1,1.094555501E0,3.082688929E0,-1.587652951E0,3.636160705E0
1.458053017E1,8.720145661E-1,1.599210557E0,-3.122105595E0,3.614613002E0
1.459048817E1,7.372514480E-1,-9.787929100E-1,-3.441477590E0,3.653127874E0
1.460044517E1,1.815694361E0,-4.373750052E0,-2.237979691E0,5.237841982E0
1.461040217E1,4.375083802E0,-8.915372497E0,-1.768968384E-1,9.932598730E0
1.462036017E1,5.698991659E0,-1.422605466E1,9.380452721E-1,1.535379647E1
1.463031717E1,3.754808242E0,-1.230564427E1,2.188769524E0,1.305060067E1
1.464027417E1,1.343117130E0,-8.779373277E0,1.714441051E0,9.045477704E0
1.465023117E1,1.080999901E0,-7.262162318E0,8.161333108E-1,7.387397099E0
1.466018917E1,2.673252856E0,-6.246681638E0,7.655560648E-1,6.837644946E0
1.467014617E1,4.628824310E0,-4.466906723E0,1.315740466E-1,6.434017555E0
1.468010317E1,5.985799926E0,-1.977619550E0,-2.077306099E0,6.637467926E0
1.469006117E1,6.051578763E0,6.334622008E-1,-5.308409933E0,8.074781477E0
1.470001817E1,5.200093186E0,2.516881937E0,-7.213664927E0,9.241895126E0
1.470997517E1,3.996179550E0,3.637449362E0,-6.660006110E0,8.576489389E0
1.471993317E1,2.453974083E0,5.224517591E0,-6.990631657E0,9.065677240E0
1.472989017E1,6.517786038E-1,6.397950861E0,-7.193603130E0,9.649171807E0
1.473984717E1,2.871976912E-2,5.763370088E0,-6.318474337E0,8.552214774E0
1.474980417E1,-6.631280494E-1,4.291967386E0,-5.970101906E0,7.382603851E0
1.475976217E1,-1.496926968E0,2.425887567E0,-5.027790944E0,5.779654195E0
1.476971917E1,-2.455492020E0,7.762126154E-1,-3.640583469E0,4.459349177E0
1.477967617E1,-3.547504567E0,-3.701041925E-1,-2.006937490E0,4.092623102E0
1.478963417E1,-4.528723487E0,-1.169239647E0,-2.789086783E-1,4.685536023E0
1.479959117E1,-4.977475069E0,-1.228270213E0,1.028400980E0,5.228911392E0
1.480954817E1,-5.267917380E0,-9.918590981E-1,1.645713756E0,5.607415782E0
1.481950617E1,-5.525836893E0,-8.465306461E-1,8.081846058E-1,5.648420120E0
1.482946317E1,-5.513617966E0,-7.260896981E-1,-8.079694283E-1,5.619608876E0
1.483942017E1,-5.378544361E0,-1.006908662E0,-1.575621720E0,5.694311925E0
1.484937817E1,-5.607579213E0,-1.244525473E0,-2.082614493E0,6.109915827E0
1.485933517E1,-5.742373906E0,-9.564892906E-1,-1.993498249E0,6.153353973E0
1.486929217E1,-5.431039494E0,-6.499577808E-1,-1.863080489E0,5.778382473E0
1.487924917E1,-4.804709142E0,-3.696516180E-1,-1.689548285E0,5.106510126E0
1.488920717E1,-4.134991280E0,-1.535467136E-1,-1.534374291E0,4.413165978E0
1.489916417E1,-3.482411023E0,-9.370806277E-2,-1.593207221E0,3.830701892E0
1.490912117E1,-2.673392605E0,-4.164422071E-1,-1.777470528E0,3.237260201E0
1.491907917E1,-1.674763016E0,-6.822303182E-1,-1.984523942E0,2.684884475E0
1.492903617E1,-7.200085938E-2,-6.550243932E-1,-2.143648607E0,2.242648085E0
1.493899317E1,2.060293917E0,6.077888310E-2,-1.232709419E0,2.401682246E0
1.494895117E1,4.087967387E0,2.153917195E0,1.538132004E0,4.869978101E0
1.495890817E1,6.222329739E0,3.820422188E0,3.570858346E0,8.127978987E0
1.496886517E1,8.668347516E0,4.288608161E0,3.915376292E0,1.043372321E1
1.497882217E1,1.004155910E1,4.969787149E0,4.244649378E0,1.198118282E1
1.498878017E1,7.444727009E0,4.331093445E0,3.918222132E0,9.462282777E0
1.499873717E1,4.198552853E0,1.943388780E0,3.457294601E0,5.775594512E0
1.500869417E1,2.517096530E0,1.320649788E0,3.017173217E0,4.145265375E0
1.501865217E1,1.519222401E0,1.674142041E0,2.869661707E0,3.653183077E0
1.502860917E1,9.537457770E-1,1.429972256E0,2.236375215E0,2.820607339E0
1.503856617E1,8.145335126E-1,1.335057328E0,1.025905096E0,1.870380757E0
1.504852417E1,8.770425868E-1,1.791585706E0,-1.233221635E0,2.345169214E0
1.505848117E1,1.032151092E0,1.929962988E0,-4.235746408E0,4.767771035E0
1.506843821E1,3.642121287E0,-5.981567127E-1,-5.036075864E0,6.243788836E0
1.507839621E1,7.280634257E0,-3.288108632E0,1.010081361E0,8.052301405E0
1.508835321E1,6.739246407E0,-4.583477399E0,1.651557755E0,8.315849339E0
1.509831021E1,5.400128188E0,-6.240509902E0,-6.260169411E-1,8.276306271E0
1.510826721E1,3.409282236E0,-5.819155449E0,-2.174843795E0,7.086305176E0
1.511822521E1,1.990233164E0,-4.346216099E0,-2.054744325E0,5.203133350E0
1.512818221E1,2.728064656E0,-2.126777344E0,-9.155523491E-1,3.578233466E0
1.513813921E1,2.552731801E0,-7.667594218E-1,-1.895093410E0,3.270434022E0
1.514809721E1,6.636104447E-1,-8.885645252E-1,-4.271137557E0,4.412770306E0
1.515805421E1,-7.712933528E-1,-1.673826292E0,-4.732904749E0,5.079072283E0
1.516801121E1,-2.439883463E0,-2.564124516E0,-4.244836489E0,5.526880012E0
1.517796921E1,-3.892182727E0,-2.707889423E0,-3.619063962E0,5.964844966E0
1.518792621E1,-4.565075626E0,-2.650025961E0,-3.538372970E0,6.354733381E0
1.519788321E1,-4.514244027E0,-2.769430783E0,-3.633423846E0,6.422609659E0
1.520784021E1,-3.824788304E0,-3.289762809E0,-2.926734917E0,5.832437071E0
1.521779821E1,-3.166717511E0,-3.913998104E0,-1.855077698E0,5.365519007E0
1.522775521E1,-3.009106983E0,-4.648063404E0,-9.651817614E-1,5.620568839E0
1.523771221E1,-2.669528180E0,-5.596830277E0,-1.598503044E-1,6.202938172E0
1.524767021E1,-1.938348480E0,-5.706703552E0,-1.113350791E-1,6.027939595E0
1.525762721E1,-1.775208240E0,-4.743078904E0,-4.121246231E-1,5.081142440E0
1.526758421E1,-2.583998618E0,-2.884343188E0,-8.442891160E-1,3.963497016E0
1.527754221E1,-3.453759082E0,-2.063419839E0,-6.650289792E-1,4.077795577E0
1.528749921E1,-3.708603544E0,-1.902142521E0,-4.333491388E-1,4.190426935E0
1.529745621E1,-4.093270227E0,-2.130952840E0,5.452110520E-1,4.646835079E0
1.530741421E1,-4.132087553E0,-2.492621840E0,1.683551673E0,5.110935083E0
1.531737121E1,-3.756865293E0,-2.465781950E0,2.316293789E0,5.055624034E0
1.532732821E1,-3.369438139E0,-2.089508361E0,3.248541985E0,5.125639823E0
1.533728521E1,-2.946464007E0,-1.137655327E0,5.566204315E0,6.399885958E0
1.534724321E1,-1.756682507E0,-1.721163011E-1,6.722434493E0,6.950300926E0
1.535720021E1,-1.217696693E0,-3.079430276E-1,5.030757236E0,5.185183942E0
1.536715721E1,-1.756184909E0,-4.198868018E-1,2.755639540E0,3.294546954E0
1.537711521E1,-1.272829505E0,-5.239274794E-1,5.213333622E-1,1.471863929E0
1.538707221E1,-1.760479689E-2,-6.032929069E-1,-5.506700125E-1,8.170126823E-1
1.539702921E1,1.217358139E0,1.021426713E-1,-1.358359067E0,1.826891710E0
1.540698721E1,2.416218027E0,1.771211668E0,-2.952749180E0,4.206426993E0
1.541694421E1,3.615863780E0,3.371989279E0,-5.490660628E0,7.388649180E0
1.542690121E1,4.383424855E0,4.273038195E0,-5.088489720E0,7.960276158E0
1.543685821E1,2.550085351E0,3.983813274E0,-1.066756668E0,4.848883716E0
1.544681621E1,9.968502814E-1,3.445837274E0,1.247277172E0,3.797789534E0
1.545677321E1,3.905986834E-1,3.556127456E0,6.335060549E-1,3.633172131E0
1.546673021E1,4.948919606E-1,3.331095607E0,6.839653333E-1,3.436411584E0
1.547668821E1,8.457506275E-1,2.597267704E0,1.410778186E0,3.074311100E0
1.548664521E1,8.508149010E-1,2.297106151E0,1.834710091E0,3.060513647E0
1.549660221E1,7.543329191E-1,2.239639716E0,2.130515615E0,3.181839247E0
1.550656021E1,5.467304510E-1,2.111388642E0,2.334709010E0,3.194955766E0
1.551651721E1,1.624514383E-1,2.229659688E0,2.674770793E0,3.485996499E0
1.552647421E1,-6.747610849E-1,2.237090330E0,2.920117623E0,3.739914785E0
1.553643221E1,-8.861858779E-1,1.763949426E0,2.974154667E0,3.569655301E0
1.554638921E1,-1.343971993E0,1.675668164E0,2.372329996E0,3.200324065E0
1.555634621E1,-1.591348976E0,1.623520941E0,2.025686002E0,3.044932772E0
1.556630321E1,-1.367438623E0,1.474926819E0,2.553511235E0,3.250494907E0
1.557626121E1,-1.387470015E0,1.580580159E0,2.762624624E0,3.472088923E0
1.558621821E1,-1.099066043E0,1.894998393E0,2.553124734E0,3.364135994E0
1.559617521E1,-4.265818638E-1,1.686380848E0,2.370266513E0,2.940070713E0
1.560613321E1,6.918484032E-2,6.857602823E-1,2.187835139E0,2.293834410E0
1.561609021E1,1.429650074E-1,-4.114019072E-1,2.148191017E0,2.191897618E0
1.562604721E1,2.851739699E-1,-1.074653918E0,2.197636242E0,2.462886576E0
1.563600521E1,5.626974428E-1,-1.113289395E0,2.415660787E0,2.718723731E0
1.564596221E1,8.173202956E-1,-8.099837941E-1,3.138612869E0,3.342899483E0
1.565591921E1,3.069139177E-1,-2.142893440E-1,3.757544739E0,3.776143343E0
1.566587621E1,8.293977195E-1,7.699256891E-1,3.451814883E0,3.632590278E0
1.567583421E1,3.123433498E0,8.833897394E-1,4.399611118E0,5.467430131E0
1.568579121E1,3.504408249E0,4.828455269E-1,3.655468726E0,5.086891839E0
1.569574821E1,3.715588043E0,3.608609140E-1,2.193211069E0,4.329663948E0
1.570570621E1,3.586710733E0,7.455556637E-1,2.011765535E0,4.179419541E0
1.571566321E1,2.804671952E0,1.405960080E0,2.420147356E0,3.962325293E0
1.572562021E1,3.200772280E0,2.397547867E0,2.352038403E0,4.639532694E0
1.573557821E1,3.610927561E0,3.381388094E0,1.432548539E0,5.150221219E0
1.574553521E1,3.309811742E0,3.827693201E0,9.497062281E-2,5.061137069E0
1.575549221E1,3.115021108E0,3.898545667E0,-1.181292513E0,5.128105578E0
1.576545021E1,2.768574166E0,3.768336360E0,-2.252668481E0,5.190363872E0
1.577540721E1,2.152017435E0,3.078795853E0,-3.256591555E0,4.971473776E0
1.578536421E1,1.690137684E0,1.405349631E0,-3.864854595E0,4.446197703E0
1.579532121E1,1.531058335E0,-1.133103270E0,-3.679421260E0,4.143211732E0
1.580527921E1,2.514291036E0,-4.288540918E0,-2.856326255E0,5.733397099E0
1.581523621E1,4.611124204E0,-8.166817212E0,-1.951013842E0,9.579448043E0
1.582519321E1,4.021246564E0,-8.960970254E0,-1.330905220E-1,9.822786005E0
1.583515121E1,1.527897331E0,-6.980749277E0,4.913747142E-1,7.162875110E0
1.584510821E1,5.061402494E-1,-6.279316118E0,-4.584246308E-2,6.299848442E0
1.585506521E1,5.758174253E-1,-6.721607696E0,-9.695502162E-2,6.746923448E0
1.586502321E1,1.883117436E0,-6.436552425E0,6.249547943E-1,6.735421805E0
1.587498021E1,3.205461162E0,-4.277978507E0,1.179982737E0,5.474343854E0
1.588493721E1,3.016104346E0,-1.879196877E0,7.668544391E-1,3.635427356E0
1.589489421E1,2.545339167E0,-1.804579389E-1,-6.028037873E-1,2.621962804E0
1.590485221E1,2.361102757E0,1.420503860E0,-3.218963553E0,4.237258996E0
1.591480921E1,2.136427004E0,3.045586007E0,-7.795521941E0,8.637712475E0
1.592476621E1,1.712615551E0,3.920881446E0,-9.605414695E0,1.051524393E1
1.593472421E1,9.665973723E-1,3.948114268E0,-7.265037979E0,8.324823937E0
1.594468121E1,3.864647019E-1,3.171610461E0,-5.180330767E0,6.086402447E0
1.595463821E1,6.794698477E-2,1.736812499E0,-4.571844948E0,4.891104239E0
1.596459621E1,-6.217923278E-1,3.145644146E-1,-4.426184374E0,4.480701349E0
1.597455321E1,-1.340412793E0,-7.890671343E-1,-3.516040115E0,3.844719949E0
1.598451021E1,-1.934170645E0,-1.641954288E0,-2.436954592E0,3.517922349E0
1.599446821E1,-2.392148548E0,-1.839012473E0,-1.548307621E0,3.391400602E0
1.600442521E1,-2.764737223E0,-1.502482408E0,-6.308809474E-1,3.209242289E0
1.601438221E1,-3.355876107E0,-7.833684379E-1,-1.841098174E-1,3.451009560E0
1.602433921E1,-4.046424090E0,-2.711821675E-2,-5.251694280E-1,4.080451720E0
1.603429721E1,-4.844704097E0,4.632240254E-1,-9.745022231E-1,4.963404967E0
1.604425421E1,-5.544890045E0,7.159196359E-1,-1.290423777E0,5.737903804E0
1.605421121E1,-5.830083311E0,6.546057326E-1,-1.591384059E0,6.078723821E0
1.606416896E1,-5.857320226E0,5.532161826E-1,-1.622304720E0,6.102960018E0
1.607412596E1,-5.650624661E0,6.996550208E-1,-1.381149467E0,5.858894952E0
1.608408296E1,-5.197776520E0,8.668584913E-1,-1.098099791E0,5.382763931E0
1.609404096E1,-4.710926235E0,9.668692678E-1,-7.281347618E-1,4.863932812E0
1.610399796E1,-4.240616553E0,1.179043674E0,-4.913736910E-1,4.428817093E0
1.611395496E1,-3.621467752E0,1.344488887E0,-2.980448610E-1,3.874468968E0
1.612391296E1,-2.593681607E0,1.382724414E0,-4.758054793E-2,2.939621573E0
1.613386996E1,-1.433199919E0,1.473504192E0,8.495595038E-2,2.057302633E0
1.614382696E1,-2.700004452E-1,1.587941803E0,4.026214358E-1,1.660290165E0
1.615378496E1,1.334316486E0,1.792537633E0,1.281530746E0,2.576026534E0
1.616374196E1,3.970993254E0,2.106874591E0,2.292534798E0,5.046129582E0
1.617369896E1,7.240476750E0,2.256491976E0,2.831517688E0,8.095291966E0
1.618365596E1,1.055183157E1,2.881486824E0,3.139274774E0,1.137976985E1
1.619361396E1,1.238280295E1,3.567549992E0,3.182064991E0,1.327353606E1
1.620357096E1,1.073096219E1,3.878801374E0,2.347990376E0,1.164953684E1
1.621352796E1,6.715499110E0,3.529572911E0,1.627638258E0,7.759189360E0
1.622348596E1,3.886603314E0,3.097987584E0,1.639375374E0,5.233618634E0
1.623344296E1,2.184599290E0,3.012667937E0,2.103570330E0,4.274769033E0
1.624339996E1,1.050877385E0,2.872195598E0,2.099482833E0,3.709673705E0
1.625335796E1,5.824312109E-1,2.557698426E0,1.824596747E0,3.195340458E0
1.626331496E1,6.939867300E-1,1.965215267E0,2.728661656E-1,2.101938289E0
1.627327196E1,1.811588446E0,7.218335098E-1,-2.663350012E0,3.300958891E0
1.628322896E1,6.284386824E0,-2.560565316E0,-4.707325812E0,8.258869704E0
1.629318696E1,8.152647069E0,-5.565464643E0,-2.413520706E0,1.016194534E1
1.630314396E1,5.435933028E0,-7.852272093E0,-1.514545214E0,9.669611787E0
1.631310096E1,2.294687158E0,-6.843477119E0,-6.797049057E-1,7.249880481E0
1.632305896E1,2.833303428E-1,-5.642566028E0,-1.148509514E0,5.765232135E0
1.633301596E1,6.598290503E-2,-4.561221727E0,-1.555776562E0,4.819703113E0
1.634297296E1,8.184014457E-1,-2.020495428E0,-1.496689571E0,2.644288633E0
1.635293096E1,6.350041115E-1,-2.056951064E-1,-2.982918473E0,3.056688293E0
1.636288796E1,-1.025011057E-1,-3.547523278E-1,-5.034524013E0,5.048047912E0
1.637284496E1,-1.158963166E0,-1.429279361E0,-4.951296499E0,5.282174944E0
1.638280296E1,-2.205922331E0,-2.040336785E0,-4.102227869E0,5.085011408E0
1.639275996E1,-2.941893239E0,-1.828206818E0,-3.645630201E0,5.028687260E0
1.640271696E1,-2.713698047E0,-1.987781426E0,-3.675325871E0,4.982313955E0
1.641267396E1,-1.784198334E0,-2.313963089E0,-3.627428403E0,4.657899279E0
1.642263196E1,-4.877911019E-1,-2.716863145E0,-2.991147845E0,4.070165959E0
1.643258896E1,6.180822694E-1,-3.086844546E0,-2.187352159E0,3.833424632E0
1.644254596E1,1.166067533E0,-2.852036152E0,-1.401045788E0,3.384782564E0
1.645250396E1,9.736988157E-1,-2.089219508E0,-1.036137431E0,2.527154193E0
1.646246096E1,1.611656356E-1,-1.319610738E0,-1.259639356E0,1.831403333E0
1.647241796E1,-1.011750156E0,-8.276961797E-1,-1.585896447E0,2.055185365E0
1.648237596E1,-2.336950248E0,-8.256087238E-1,-1.412401958E0,2.852690925E0
1.649233296E1,-2.929303599E0,-9.676609808E-1,-1.045599103E0,3.257370847E0
1.650228996E1,-3.090603136E0,-1.220609776E0,-1.083420063E0,3.495070100E0
1.651224796E1,-2.899474028E0,-1.876121242E0,-1.210805165E0,3.659621524E0
1.652220496E1,-2.305966437E0,-2.595941556E0,-1.125729346E0,3.650158946E0
1.653216196E1,-1.852814240E0,-2.949131507E0,-8.028911215E-1,3.574203605E0
